ax,ay,az
0,0.05,0.65,0.75
9,0.05,0.65,0.75
19,0.04,0.66,0.75
28,0.05,0.66,0.75
38,0.05,0.65,0.75
48,0.05,0.65,0.75
57,0.05,0.65,0.76
67,0.04,0.64,0.77
76,0.04,0.64,0.77
86,0.04,0.64,0.77
96,0.04,0.64,0.77
105,0.04,0.64,0.77
115,0.04,0.64,0.76
125,0.05,0.64,0.75
134,0.05,0.65,0.75
144,0.05,0.66,0.75
153,0.05,0.66,0.74
163,0.05,0.66,0.75
173,0.05,0.65,0.75
182,0.05,0.65,0.75
192,0.04,0.64,0.76
201,0.04,0.64,0.76
211,0.04,0.65,0.76
221,0.04,0.65,0.75
230,0.05,0.65,0.75
240,0.04,0.64,0.76
250,0.04,0.64,0.75
259,0.04,0.65,0.75
269,0.04,0.65,0.75
278,0.04,0.65,0.75
288,0.04,0.65,0.75
298,0.04,0.65,0.75
307,0.04,0.65,0.76
317,0.04,0.65,0.76
326,0.04,0.65,0.76
336,0.04,0.64,0.76
346,0.04,0.64,0.76
355,0.04,0.64,0.76
365,0.04,0.64,0.76
375,0.04,0.64,0.76
384,0.04,0.64,0.76
394,0.04,0.65,0.75
403,0.04,0.65,0.75
413,0.04,0.65,0.75
423,0.04,0.64,0.75
432,0.04,0.65,0.75
442,0.04,0.65,0.75
451,0.04,0.65,0.75
461,0.04,0.65,0.75
471,0.04,0.64,0.76
480,0.04,0.64,0.76
490,0.04,0.64,0.76
500,0.04,0.65,0.76
509,0.04,0.65,0.76
519,0.04,0.65,0.76
528,0.04,0.64,0.76
538,0.04,0.64,0.75
548,0.04,0.65,0.75
557,0.04,0.65,0.75
567,0.04,0.65,0.75
576,0.04,0.65,0.75
586,0.04,0.65,0.75
596,0.04,0.65,0.75
605,0.04,0.64,0.75
615,0.05,0.64,0.75
625,0.04,0.64,0.75
634,0.04,0.65,0.75
644,0.04,0.65,0.75
653,0.04,0.65,0.75
663,0.04,0.65,0.75
673,0.04,0.65,0.76
682,0.04,0.64,0.77
692,0.04,0.64,0.77
701,0.04,0.64,0.77
711,0.04,0.64,0.77
721,0.04,0.64,0.76
730,0.04,0.64,0.76
740,0.04,0.64,0.76
750,0.04,0.64,0.76
759,0.04,0.64,0.75
769,0.04,0.65,0.75
778,0.04,0.65,0.75
788,0.04,0.65,0.75
798,0.04,0.65,0.75
807,0.04,0.65,0.75
817,0.04,0.65,0.75
826,0.04,0.64,0.75
836,0.04,0.65,0.76
846,0.04,0.65,0.76
855,0.04,0.64,0.76
865,0.04,0.64,0.76
875,0.04,0.64,0.76
884,0.04,0.64,0.76
894,0.04,0.64,0.76
903,0.04,0.65,0.76
913,0.04,0.64,0.75
923,0.04,0.64,0.76
932,0.04,0.64,0.76
942,0.04,0.64,0.76
951,0.04,0.65,0.76
961,0.04,0.64,0.76
971,0.04,0.65,0.76
980,0.04,0.65,0.76
990,0.04,0.64,0.76
1000,0.04,0.64,0.77
1009,0.03,0.64,0.77
1019,0.03,0.64,0.77
1028,0.03,0.64,0.76
1038,0.03,0.64,0.76
1048,0.05,0.63,0.76
1057,0.05,0.63,0.76
1067,0.05,0.63,0.75
1076,0.04,0.65,0.75
1086,0.04,0.66,0.75
1096,0.04,0.66,0.75
1105,0.05,0.65,0.75
1115,0.04,0.66,0.75
1125,0.04,0.66,0.75
1134,0.04,0.65,0.75
1144,0.05,0.66,0.75
1153,0.05,0.66,0.75
1163,0.05,0.66,0.75
1173,0.04,0.65,0.75
1182,0.04,0.65,0.75
1192,0.05,0.64,0.76
1201,0.05,0.64,0.76
1211,0.04,0.63,0.76
1221,0.04,0.64,0.76
1230,0.04,0.64,0.75
1240,0.05,0.65,0.75
1250,0.04,0.65,0.75
1259,0.04,0.65,0.75
1269,0.04,0.65,0.76
1278,0.03,0.65,0.76
1288,0.03,0.64,0.76
1298,0.03,0.65,0.76
1307,0.03,0.65,0.76
1317,0.04,0.65,0.76
1326,0.04,0.64,0.76
1336,0.04,0.64,0.76
1346,0.04,0.64,0.76
1355,0.04,0.64,0.76
1365,0.04,0.64,0.76
1375,0.03,0.64,0.76
1384,0.05,0.65,0.76
1394,0.06,0.65,0.77
1403,0.05,0.64,0.77
1413,0.05,0.64,0.76
1423,0.05,0.64,0.76
1432,0.05,0.64,0.76
1442,0.05,0.65,0.75
1451,0.05,0.65,0.75
1461,0.05,0.66,0.75
1471,0.05,0.66,0.75
1480,0.05,0.66,0.75
1490,0.04,0.65,0.75
1500,0.04,0.64,0.75
1509,0.04,0.65,0.75
1519,0.04,0.65,0.76
1528,0.05,0.65,0.75
1538,0.05,0.65,0.75
1548,0.04,0.65,0.75
1557,0.05,0.66,0.75
1567,0.05,0.66,0.75
1576,0.05,0.66,0.74
1586,0.04,0.65,0.75
1596,0.04,0.65,0.75
1605,0.03,0.65,0.75
1615,0.04,0.64,0.76
1625,0.04,0.64,0.76
1634,0.04,0.65,0.75
1644,0.04,0.66,0.75
1653,0.04,0.66,0.75
1663,0.03,0.66,0.75
1673,0.03,0.65,0.76
1682,0.04,0.65,0.76
1692,0.04,0.64,0.75
1701,0.05,0.64,0.75
1711,0.05,0.64,0.75
1721,0.04,0.64,0.75
1730,0.03,0.64,0.76
1740,0.03,0.65,0.76
1750,0.04,0.65,0.76
1759,0.04,0.65,0.75
1769,0.04,0.65,0.75
1778,0.05,0.65,0.75
1788,0.05,0.65,0.75
1798,0.05,0.65,0.76
1807,0.04,0.64,0.76
1817,0.04,0.65,0.76
1826,0.05,0.65,0.76
1836,0.05,0.66,0.76
1846,0.05,0.65,0.77
1855,0.05,0.65,0.77
1865,0.05,0.64,0.78
1875,0.06,0.63,0.77
1884,0.06,0.63,0.77
1894,0.06,0.64,0.76
1903,0.06,0.64,0.76
1913,0.06,0.64,0.75
1923,0.05,0.65,0.75
1932,0.04,0.65,0.76
1942,0.04,0.65,0.76
1951,0.04,0.65,0.75
1961,0.05,0.65,0.75
1971,0.05,0.65,0.74
1980,0.05,0.66,0.73
1990,0.04,0.66,0.74
2000,0.03,0.66,0.75
2009,0.02,0.65,0.77
2019,0.02,0.65,0.78
2028,0.02,0.64,0.77
2038,0.02,0.64,0.77
2048,0.02,0.64,0.77
2057,0.02,0.64,0.77
2067,0.01,0.65,0.77
2076,0.01,0.65,0.78
2086,0.01,0.64,0.77
2096,0.01,0.64,0.77
2105,0.01,0.63,0.77
2115,0.01,0.63,0.78
2125,0.01,0.64,0.77
2134,0.02,0.64,0.76
2144,0.02,0.64,0.75
2153,0.02,0.65,0.74
2163,0.03,0.65,0.73
2173,0.03,0.65,0.74
2182,0.02,0.65,0.75
2192,0.02,0.65,0.76
2201,0.01,0.64,0.77
2211,0.01,0.63,0.76
2221,0.01,0.63,0.76
2230,0.02,0.64,0.76
2240,0.02,0.64,0.76
2250,0.02,0.65,0.77
2259,0.02,0.64,0.77
2269,0.02,0.63,0.77
2278,0.02,0.63,0.77
2288,0.02,0.63,0.78
2298,0.02,0.62,0.78
2307,0.01,0.63,0.78
2317,0.01,0.63,0.78
2326,0.02,0.63,0.78
2336,0.02,0.63,0.77
2346,0.02,0.64,0.77
2355,0.02,0.64,0.76
2365,0.01,0.64,0.77
2375,0.01,0.63,0.77
2384,0.01,0.63,0.77
2394,0.01,0.63,0.77
2403,0.01,0.63,0.77
2413,0.02,0.63,0.76
2423,0.01,0.63,0.77
2432,0.01,0.64,0.77
2442,0.01,0.63,0.77
2451,0.01,0.63,0.77
2461,0.01,0.63,0.77
2471,0.00,0.63,0.77
2480,0.01,0.64,0.77
2490,0.02,0.64,0.77
2500,0.01,0.64,0.77
2509,0.01,0.64,0.77
2519,0.00,0.64,0.78
2528,0.01,0.63,0.77
2538,-0.00,0.63,0.77
2548,-0.01,0.64,0.77
2557,-0.00,0.65,0.76
2567,-0.00,0.64,0.74
2576,-0.01,0.65,0.75
2586,-0.01,0.64,0.75
2596,-0.01,0.64,0.75
2605,-0.01,0.64,0.75
2615,0.00,0.64,0.75
2625,0.01,0.64,0.74
2634,0.01,0.64,0.74
2644,0.01,0.66,0.74
2653,0.01,0.66,0.75
2663,0.01,0.66,0.76
2673,0.00,0.65,0.76
2682,0.00,0.63,0.77
2692,-0.00,0.62,0.78
2701,0.00,0.63,0.78
2711,0.01,0.63,0.78
2721,0.01,0.63,0.77
2730,0.01,0.63,0.77
2740,0.01,0.64,0.76
2750,0.01,0.64,0.76
2759,0.00,0.64,0.76
2769,0.00,0.64,0.75
2778,0.01,0.64,0.75
2788,0.01,0.65,0.76
2798,0.01,0.65,0.75
2807,0.01,0.65,0.75
2817,0.01,0.64,0.75
2826,0.01,0.63,0.75
2836,0.01,0.62,0.75
2846,0.01,0.63,0.76
2855,0.00,0.63,0.76
2865,0.00,0.63,0.75
2875,0.00,0.65,0.76
2884,0.01,0.66,0.78
2894,-0.01,0.66,0.76
2903,-0.01,0.65,0.75
2913,-0.01,0.65,0.76
2923,-0.01,0.64,0.76
2932,-0.00,0.64,0.76
2942,-0.00,0.64,0.76
2951,-0.00,0.63,0.74
2961,0.00,0.63,0.73
2971,0.01,0.63,0.74
2980,0.01,0.64,0.74
2990,-0.00,0.64,0.75
3000,-0.00,0.64,0.76
3009,-0.00,0.65,0.76
3019,-0.01,0.65,0.77
3028,-0.00,0.64,0.77
3038,-0.00,0.64,0.77
3048,-0.00,0.64,0.77
3057,0.00,0.64,0.76
3067,0.01,0.64,0.76
3076,0.01,0.64,0.76
3086,0.00,0.64,0.76
3096,0.00,0.64,0.75
3105,0.01,0.64,0.74
3115,0.00,0.64,0.74
3125,0.00,0.64,0.74
3134,0.00,0.64,0.74
3144,0.01,0.64,0.75
3153,0.00,0.65,0.75
3163,0.00,0.65,0.76
3173,0.01,0.64,0.76
3182,0.01,0.63,0.76
3192,-0.00,0.64,0.77
3201,-0.01,0.63,0.78
3211,-0.01,0.62,0.77
3221,-0.01,0.63,0.77
3230,-0.01,0.63,0.77
3240,-0.00,0.64,0.77
3250,0.01,0.64,0.76
3259,0.01,0.64,0.76
3269,0.01,0.64,0.76
3278,-0.00,0.64,0.77
3288,-0.00,0.64,0.77
3298,-0.00,0.65,0.77
3307,-0.00,0.65,0.77
3317,0.00,0.64,0.77
3326,0.00,0.63,0.76
3336,0.01,0.63,0.76
3346,0.02,0.63,0.77
3355,0.02,0.63,0.77
3365,0.02,0.63,0.78
3375,0.02,0.63,0.78
3384,0.02,0.63,0.78
3394,0.02,0.63,0.77
3403,0.03,0.63,0.76
3413,0.03,0.63,0.76
3423,0.03,0.64,0.76
3432,0.03,0.64,0.76
3442,0.03,0.63,0.76
3451,0.03,0.63,0.76
3461,0.03,0.64,0.76
3471,0.02,0.63,0.77
3480,0.02,0.63,0.77
3490,0.01,0.63,0.77
3500,0.02,0.63,0.78
3509,0.02,0.63,0.77
3519,0.02,0.63,0.77
3528,0.02,0.63,0.77
3538,0.03,0.63,0.77
3548,0.03,0.63,0.77
3557,0.02,0.63,0.77
3567,0.02,0.62,0.78
3576,0.02,0.61,0.78
3586,0.02,0.62,0.78
3596,0.02,0.62,0.78
3605,0.02,0.62,0.77
3615,0.02,0.63,0.77
3625,0.02,0.63,0.77
3634,0.02,0.63,0.77
3644,0.02,0.63,0.78
3653,0.02,0.62,0.78
3663,0.03,0.62,0.77
3673,0.03,0.62,0.78
3682,0.03,0.62,0.78
3692,0.02,0.63,0.78
3701,0.02,0.63,0.78
3711,0.03,0.63,0.78
3721,0.03,0.63,0.77
3730,0.04,0.63,0.77
3740,0.04,0.63,0.77
3750,0.04,0.62,0.77
3759,0.04,0.62,0.78
3769,0.04,0.62,0.78
3778,0.04,0.62,0.78
3788,0.04,0.62,0.78
3798,0.05,0.62,0.78
3807,0.04,0.63,0.78
3817,0.04,0.63,0.79
3826,0.04,0.63,0.78
3836,0.05,0.63,0.78
3846,0.05,0.62,0.78
3855,0.04,0.61,0.78
3865,0.04,0.61,0.77
3875,0.04,0.61,0.77
3884,0.05,0.62,0.77
3894,0.04,0.62,0.78
3903,0.04,0.63,0.78
3913,0.03,0.63,0.78
3923,0.03,0.63,0.78
3932,0.03,0.63,0.78
3942,0.04,0.62,0.77
3951,0.04,0.62,0.77
3961,0.06,0.62,0.76
3971,0.06,0.62,0.77
3980,0.06,0.61,0.78
3990,0.05,0.61,0.78
4000,0.04,0.62,0.79
4009,0.04,0.62,0.80
4019,0.04,0.62,0.80
4028,0.05,0.62,0.80
4038,0.06,0.62,0.80
4048,0.07,0.61,0.79
4057,0.07,0.60,0.79
4067,0.08,0.59,0.79
4076,0.08,0.59,0.80
4086,0.09,0.59,0.81
4096,0.11,0.60,0.81
4105,0.15,0.60,0.82
4115,0.17,0.59,0.81
4125,0.15,0.59,0.80
4134,0.11,0.58,0.80
4144,0.07,0.59,0.80
4153,0.05,0.60,0.80
4163,0.04,0.61,0.79
4173,0.04,0.61,0.78
4182,0.05,0.62,0.78
4192,0.07,0.62,0.77
4201,0.08,0.62,0.77
4211,0.09,0.62,0.78
4221,0.11,0.61,0.77
4230,0.11,0.61,0.77
4240,0.08,0.62,0.79
4250,0.08,0.61,0.80
4259,0.07,0.60,0.80
4269,0.06,0.59,0.81
4278,0.06,0.59,0.81
4288,0.07,0.58,0.82
4298,0.08,0.59,0.81
4307,0.09,0.59,0.80
4317,0.09,0.60,0.80
4326,0.10,0.60,0.79
4336,0.10,0.60,0.79
4346,0.09,0.60,0.79
4355,0.09,0.60,0.80
4365,0.09,0.59,0.80
4375,0.08,0.59,0.80
4384,0.08,0.58,0.81
4394,0.07,0.58,0.82
4403,0.06,0.58,0.82
4413,0.06,0.58,0.83
4423,0.06,0.59,0.82
4432,0.06,0.59,0.81
4442,0.06,0.60,0.81
4451,0.06,0.60,0.80
4461,0.06,0.59,0.80
4471,0.06,0.59,0.80
4480,0.07,0.59,0.79
4490,0.06,0.58,0.78
4500,0.07,0.59,0.78
4509,0.07,0.60,0.77
4519,0.07,0.60,0.77
4528,0.07,0.61,0.78
4538,0.07,0.61,0.78
4548,0.08,0.60,0.79
4557,0.08,0.59,0.80
4567,0.07,0.58,0.81
4576,0.07,0.57,0.81
4586,0.07,0.56,0.82
4596,0.06,0.57,0.83
4605,0.07,0.57,0.83
4615,0.07,0.58,0.85
4625,0.06,0.59,0.85
4634,0.07,0.58,0.83
4644,0.07,0.58,0.82
4653,0.08,0.58,0.82
4663,0.07,0.58,0.81
4673,0.07,0.58,0.80
4682,0.06,0.59,0.79
4692,0.06,0.61,0.79
4701,0.06,0.62,0.78
4711,0.06,0.62,0.78
4721,0.05,0.62,0.78
4730,0.05,0.61,0.78
4740,0.05,0.61,0.78
4750,0.06,0.59,0.79
4759,0.05,0.58,0.80
4769,0.05,0.57,0.80
4778,0.05,0.57,0.81
4788,0.05,0.57,0.81
4798,0.05,0.58,0.82
4807,0.06,0.59,0.81
4817,0.06,0.60,0.81
4826,0.06,0.60,0.80
4836,0.06,0.60,0.79
4846,0.06,0.60,0.79
4855,0.06,0.61,0.80
4865,0.06,0.61,0.80
4875,0.06,0.60,0.80
4884,0.06,0.60,0.80
4894,0.07,0.60,0.80
4903,0.06,0.60,0.79
4913,0.06,0.61,0.79
4923,0.06,0.61,0.79
4932,0.06,0.61,0.79
4942,0.06,0.62,0.79
4951,0.06,0.62,0.79
4961,0.06,0.62,0.79
4971,0.07,0.62,0.78
4980,0.07,0.61,0.78
4990,0.07,0.61,0.78
5000,0.06,0.62,0.78
5009,0.06,0.62,0.78
5019,0.06,0.62,0.78
5028,0.06,0.61,0.78
5038,0.06,0.61,0.78
5048,0.06,0.61,0.78
5057,0.06,0.61,0.78
5067,0.05,0.61,0.79
5076,0.05,0.61,0.78
5086,0.09,0.63,0.78
5096,-0.00,0.59,0.80
5105,0.03,0.60,0.80
5115,0.04,0.61,0.80
5125,0.04,0.60,0.81
5134,0.04,0.61,0.80
5144,0.05,0.60,0.80
5153,0.05,0.60,0.80
5163,0.04,0.59,0.80
5173,0.05,0.59,0.80
5182,0.05,0.60,0.80
5192,0.05,0.60,0.80
5201,0.05,0.61,0.79
5211,0.04,0.61,0.79
5221,0.04,0.62,0.79
5230,0.03,0.62,0.79
5240,0.04,0.61,0.79
5250,0.04,0.61,0.79
5259,0.04,0.61,0.79
5269,0.04,0.61,0.79
5278,0.04,0.60,0.80
5288,0.03,0.60,0.80
5298,0.03,0.60,0.81
5307,0.03,0.60,0.81
5317,0.04,0.60,0.80
5326,0.05,0.60,0.79
5336,0.05,0.61,0.78
5346,0.05,0.61,0.78
5355,0.05,0.61,0.78
5365,0.04,0.62,0.78
5375,0.04,0.62,0.79
5384,0.04,0.62,0.79
5394,0.04,0.62,0.79
5403,0.05,0.61,0.79
5413,0.05,0.60,0.79
5423,0.05,0.60,0.80
5432,0.05,0.59,0.80
5442,0.05,0.59,0.79
5451,0.05,0.60,0.78
5461,0.05,0.61,0.78
5471,0.05,0.62,0.79
5480,0.05,0.62,0.78
5490,0.05,0.62,0.78
5500,0.05,0.62,0.78
5509,0.05,0.62,0.78
5519,0.05,0.61,0.78
5528,0.05,0.61,0.78
5538,0.04,0.62,0.78
5548,0.04,0.62,0.79
5557,0.05,0.61,0.79
5567,0.05,0.61,0.78
5576,0.05,0.60,0.78
5586,0.05,0.60,0.78
5596,0.05,0.61,0.79
5605,0.04,0.61,0.79
5615,0.04,0.61,0.79
5625,0.05,0.61,0.79
5634,0.04,0.62,0.79
5644,0.04,0.62,0.79
5653,0.03,0.61,0.80
5663,0.04,0.61,0.79
5673,0.05,0.61,0.79
5682,0.05,0.60,0.79
5692,0.05,0.60,0.79
5701,0.05,0.60,0.79
5711,0.05,0.60,0.80
5721,0.04,0.59,0.80
5730,0.04,0.60,0.80
5740,0.04,0.61,0.80
5750,0.04,0.61,0.79
5759,0.04,0.62,0.79
5769,0.04,0.62,0.78
5778,0.04,0.62,0.78
5788,0.04,0.62,0.78
5798,0.04,0.61,0.78
5807,0.04,0.62,0.79
5817,0.04,0.61,0.79
5826,0.04,0.60,0.79
5836,0.05,0.60,0.79
5846,0.05,0.61,0.78
5855,0.06,0.61,0.78
5865,0.06,0.62,0.78
5875,0.05,0.62,0.78
5884,0.05,0.62,0.78
5894,0.04,0.62,0.79
5903,0.04,0.61,0.79
5913,0.04,0.61,0.79
5923,0.04,0.61,0.78
5932,0.05,0.61,0.78
5942,0.05,0.62,0.79
5951,0.05,0.62,0.79
5961,0.04,0.61,0.79
5971,0.04,0.61,0.79
5980,0.04,0.61,0.79
5990,0.04,0.61,0.79
6000,0.03,0.61,0.79
6009,0.04,0.61,0.79
6019,0.04,0.61,0.79
6028,0.05,0.61,0.79
6038,0.05,0.61,0.78
6048,0.05,0.61,0.78
6057,0.05,0.61,0.78
6067,0.05,0.61,0.79
6076,0.04,0.61,0.79
6086,0.04,0.61,0.79
6096,0.04,0.61,0.79
6105,0.04,0.61,0.79
6115,0.05,0.61,0.79
6125,0.05,0.61,0.79
6134,0.05,0.61,0.78
6144,0.05,0.61,0.78
6153,0.05,0.62,0.78
6163,0.06,0.62,0.77
6173,0.05,0.62,0.77
6182,0.05,0.62,0.78
6192,0.05,0.62,0.78
6201,0.05,0.63,0.78
6211,0.05,0.63,0.78
6221,0.05,0.63,0.78
6230,0.05,0.63,0.79
6240,0.05,0.62,0.79
6250,0.05,0.61,0.79
6259,0.05,0.61,0.79
6269,0.04,0.61,0.79
6278,0.04,0.61,0.79
6288,0.05,0.61,0.78
6298,0.05,0.61,0.78
6307,0.04,0.62,0.78
6317,0.04,0.63,0.78
6326,0.04,0.62,0.78
6336,0.04,0.62,0.78
6346,0.04,0.63,0.78
6355,0.05,0.62,0.78
6365,0.06,0.62,0.78
6375,0.06,0.61,0.77
6384,0.06,0.61,0.77
6394,0.06,0.61,0.78
6403,0.05,0.61,0.78
6413,0.05,0.62,0.78
6423,0.05,0.63,0.79
6432,0.05,0.62,0.79
6442,0.05,0.62,0.79
6451,0.05,0.61,0.79
6461,0.05,0.61,0.79
6471,0.06,0.60,0.79
6480,0.06,0.60,0.79
6490,0.06,0.60,0.78
6500,0.06,0.60,0.78
6509,0.05,0.61,0.79
6519,0.05,0.61,0.79
6528,0.04,0.62,0.79
6538,0.04,0.62,0.79
6548,0.04,0.62,0.79
6557,0.05,0.62,0.78
6567,0.05,0.62,0.77
6576,0.06,0.63,0.76
6586,0.06,0.63,0.75
6596,0.06,0.63,0.76
6605,0.06,0.63,0.76
6615,0.06,0.64,0.77
6625,0.05,0.64,0.78
6634,0.05,0.62,0.78
6644,0.05,0.62,0.78
6653,0.05,0.61,0.78
6663,0.05,0.62,0.78
6673,0.05,0.62,0.79
6682,0.05,0.62,0.79
6692,0.04,0.62,0.79
6701,0.05,0.61,0.78
6711,0.05,0.62,0.78
6721,0.05,0.62,0.78
6730,0.05,0.62,0.77
6740,0.05,0.63,0.77
6750,0.05,0.63,0.77
6759,0.05,0.63,0.77
6769,0.05,0.63,0.78
6778,0.05,0.62,0.78
6788,0.05,0.61,0.78
6798,0.05,0.61,0.77
6807,0.05,0.62,0.77
6817,0.05,0.62,0.77
6826,0.05,0.62,0.77
6836,0.05,0.62,0.78
6846,0.04,0.62,0.78
6855,0.04,0.62,0.78
6865,0.04,0.63,0.78
6875,0.05,0.63,0.77
6884,0.06,0.63,0.76
6894,0.06,0.62,0.76
6903,0.05,0.63,0.77
6913,0.05,0.62,0.77
6923,0.05,0.63,0.77
6932,0.04,0.63,0.78
6942,0.04,0.63,0.78
6951,0.05,0.63,0.78
6961,0.05,0.63,0.77
6971,0.06,0.63,0.77
6980,0.06,0.62,0.77
6990,0.06,0.62,0.78
7000,0.06,0.61,0.78
7009,0.05,0.62,0.78
7019,0.05,0.62,0.78
7028,0.05,0.62,0.78
7038,0.06,0.62,0.77
7048,0.06,0.62,0.78
7057,0.06,0.62,0.77
7067,0.06,0.62,0.78
7076,0.05,0.63,0.78
7086,0.05,0.63,0.78
7096,0.05,0.62,0.78
7105,0.05,0.62,0.77
7115,0.06,0.62,0.77
7125,0.06,0.62,0.77
7134,0.07,0.62,0.77
7144,0.07,0.62,0.76
7153,0.07,0.62,0.76
7163,0.06,0.62,0.77
7173,0.06,0.62,0.78
7182,0.05,0.62,0.78
7192,0.05,0.62,0.79
7201,0.05,0.62,0.79
7211,0.06,0.62,0.79
7221,0.06,0.62,0.78
7230,0.06,0.61,0.78
7240,0.06,0.61,0.78
7250,0.06,0.61,0.77
7259,0.06,0.61,0.77
7269,0.05,0.62,0.78
7278,0.05,0.62,0.78
7288,0.05,0.63,0.78
7298,0.06,0.63,0.78
7307,0.06,0.63,0.77
7317,0.06,0.62,0.77
7326,0.05,0.62,0.77
7336,0.05,0.62,0.77
7346,0.06,0.61,0.77
7355,0.06,0.62,0.77
7365,0.06,0.62,0.77
7375,0.06,0.62,0.77
7384,0.06,0.63,0.78
7394,0.06,0.63,0.79
7403,0.06,0.61,0.79
7413,0.07,0.60,0.78
7423,0.08,0.61,0.78
7432,0.08,0.61,0.77
7442,0.07,0.62,0.77
7451,0.07,0.63,0.76
7461,0.06,0.63,0.77
7471,0.05,0.63,0.77
7480,0.04,0.63,0.78
7490,0.04,0.62,0.79
7500,0.04,0.62,0.79
7509,0.04,0.62,0.78
7519,0.04,0.62,0.77
7528,0.04,0.62,0.78
7538,0.04,0.62,0.78
7548,0.04,0.62,0.78
7557,0.04,0.61,0.78
7567,0.04,0.61,0.78
7576,0.04,0.62,0.78
7586,0.04,0.62,0.78
7596,0.04,0.63,0.77
7605,0.04,0.63,0.77
7615,0.04,0.64,0.78
7625,0.04,0.64,0.78
7634,0.04,0.63,0.78
7644,0.05,0.62,0.78
7653,0.05,0.61,0.78
7663,0.06,0.61,0.78
7673,0.06,0.61,0.78
7682,0.05,0.61,0.78
7692,0.05,0.62,0.78
7701,0.05,0.62,0.78
7711,0.05,0.62,0.77
7721,0.05,0.62,0.76
7730,0.05,0.62,0.77
7740,0.05,0.63,0.77
7750,0.04,0.62,0.78
7759,0.03,0.62,0.78
7769,0.03,0.61,0.79
7778,0.04,0.60,0.79
7788,0.04,0.60,0.79
7798,0.04,0.61,0.79
7807,0.04,0.61,0.78
7817,0.04,0.61,0.78
7826,0.05,0.62,0.79
7836,0.05,0.62,0.78
7846,0.04,0.61,0.78
7855,0.04,0.61,0.78
7865,0.03,0.62,0.79
7875,0.04,0.61,0.78
7884,0.04,0.61,0.78
7894,0.04,0.60,0.78
7903,0.04,0.61,0.77
7913,0.04,0.61,0.77
7923,0.04,0.62,0.78
7932,0.03,0.63,0.78
7942,0.03,0.62,0.78
7951,0.03,0.62,0.78
7961,0.03,0.62,0.79
7971,0.03,0.61,0.79
7980,0.03,0.61,0.79
7990,0.03,0.60,0.78
8000,0.04,0.60,0.78
8009,0.04,0.61,0.78
8019,0.04,0.61,0.78
8028,0.04,0.62,0.78
8038,0.03,0.62,0.78
8048,0.04,0.62,0.78
8057,0.03,0.62,0.78
8067,0.03,0.62,0.78
8076,0.04,0.62,0.78
8086,0.04,0.61,0.77
8096,0.04,0.61,0.77
8105,0.04,0.62,0.77
8115,0.04,0.61,0.77
8125,0.03,0.61,0.77
8134,0.02,0.62,0.78
8144,0.02,0.62,0.78
8153,0.02,0.61,0.78
8163,0.03,0.61,0.78
8173,0.03,0.61,0.78
8182,0.04,0.61,0.78
8192,0.04,0.61,0.78
8201,0.04,0.61,0.79
8211,0.03,0.61,0.79
8221,0.02,0.61,0.79
8230,0.02,0.61,0.79
8240,0.02,0.61,0.79
8250,0.02,0.61,0.79
8259,0.02,0.61,0.78
8269,0.03,0.61,0.78
8278,0.03,0.61,0.78
8288,0.03,0.61,0.78
8298,0.03,0.61,0.78
8307,0.03,0.61,0.78
8317,0.03,0.61,0.78
8326,0.03,0.61,0.79
8336,0.03,0.61,0.79
8346,0.03,0.60,0.79
8355,0.03,0.60,0.78
8365,0.03,0.60,0.78
8375,0.03,0.61,0.78
8384,0.02,0.61,0.78
8394,0.02,0.62,0.78
8403,0.02,0.62,0.78
8413,0.02,0.62,0.78
8423,0.03,0.62,0.78
8432,0.03,0.61,0.78
8442,0.03,0.61,0.78
8451,0.04,0.60,0.78
8461,0.04,0.60,0.78
8471,0.04,0.61,0.79
8480,0.04,0.61,0.79
8490,0.04,0.61,0.79
8500,0.04,0.61,0.80
8509,0.04,0.61,0.80
8519,0.04,0.60,0.79
8528,0.04,0.60,0.79
8538,0.04,0.61,0.79
8548,0.04,0.61,0.79
8557,0.04,0.60,0.78
8567,0.03,0.60,0.78
8576,0.03,0.60,0.79
8586,0.03,0.60,0.79
8596,0.03,0.59,0.79
8605,0.03,0.60,0.80
8615,0.03,0.61,0.79
8625,0.04,0.61,0.79
8634,0.05,0.60,0.79
8644,0.03,0.61,0.80
8653,0.04,0.60,0.79
8663,0.05,0.59,0.79
8673,0.05,0.59,0.79
8682,0.05,0.59,0.79
8692,0.05,0.60,0.79
8701,0.04,0.60,0.80
8711,0.04,0.60,0.80
8721,0.04,0.60,0.80
8730,0.04,0.60,0.80
8740,0.04,0.59,0.79
8750,0.04,0.59,0.80
8759,0.05,0.59,0.80
8769,0.05,0.59,0.79
8778,0.05,0.59,0.79
8788,0.04,0.60,0.79
8798,0.04,0.60,0.80
8807,0.04,0.60,0.80
8817,0.04,0.60,0.80
8826,0.05,0.60,0.80
8836,0.05,0.60,0.79
8846,0.05,0.59,0.80
8855,0.06,0.59,0.80
8865,0.05,0.59,0.80
8875,0.05,0.59,0.80
8884,0.05,0.60,0.80
8894,0.05,0.60,0.80
8903,0.05,0.59,0.80
8913,0.04,0.59,0.80
8923,0.04,0.60,0.79
8932,0.05,0.60,0.79
8942,0.05,0.60,0.78
8951,0.05,0.60,0.78
8961,0.05,0.60,0.78
8971,0.04,0.60,0.79
8980,0.03,0.60,0.80
8990,0.03,0.60,0.81
9000,0.03,0.60,0.81
9009,0.04,0.59,0.80
9019,0.05,0.59,0.79
9028,0.05,0.59,0.79
9038,0.06,0.59,0.79
9048,0.05,0.59,0.79
9057,0.05,0.59,0.80
9067,0.05,0.60,0.80
9076,0.04,0.60,0.80
9086,0.04,0.60,0.79
9096,0.05,0.60,0.78
9105,0.05,0.60,0.78
9115,0.05,0.61,0.78
9125,0.04,0.60,0.79
9134,0.04,0.60,0.80
9144,0.03,0.59,0.80
9153,0.03,0.59,0.80
9163,0.04,0.59,0.80
9173,0.04,0.59,0.80
9182,0.05,0.60,0.80
9192,0.05,0.60,0.80
9201,0.05,0.60,0.81
9211,0.04,0.60,0.81
9221,0.04,0.59,0.81
9230,0.04,0.59,0.81
9240,0.05,0.59,0.80
9250,0.05,0.58,0.79
9259,0.06,0.59,0.79
9269,0.06,0.60,0.78
9278,0.06,0.61,0.78
9288,0.06,0.62,0.78
9298,0.05,0.62,0.78
9307,0.05,0.62,0.78
9317,0.04,0.61,0.78
9326,0.04,0.61,0.78
9336,0.05,0.60,0.78
9346,0.05,0.60,0.78
9355,0.05,0.59,0.79
9365,0.05,0.59,0.80
9375,0.04,0.60,0.82
9384,0.04,0.59,0.82
9394,0.04,0.59,0.81
9403,0.05,0.59,0.81
9413,0.04,0.59,0.80
9423,0.03,0.59,0.81
9432,0.03,0.60,0.81
9442,0.03,0.60,0.81
9451,0.03,0.60,0.80
9461,0.04,0.59,0.80
9471,0.04,0.58,0.80
9480,0.04,0.59,0.79
9490,0.04,0.60,0.79
9500,0.04,0.61,0.79
9509,0.04,0.61,0.79
9519,0.04,0.61,0.79
9528,0.04,0.60,0.79
9538,0.04,0.61,0.80
9548,0.05,0.60,0.80
9557,0.04,0.60,0.81
9567,0.04,0.59,0.81
9576,0.04,0.59,0.80
9586,0.04,0.59,0.80
9596,0.04,0.59,0.80
9605,0.04,0.60,0.79
9615,0.05,0.60,0.79
9625,0.05,0.60,0.79
9634,0.05,0.61,0.79
9644,0.04,0.61,0.79
9653,0.04,0.60,0.79
9663,0.04,0.60,0.78
9673,0.04,0.60,0.78
9682,0.04,0.60,0.78
9692,0.04,0.61,0.78
9701,0.05,0.61,0.79
9711,0.04,0.60,0.79
9721,0.04,0.60,0.79
9730,0.03,0.60,0.80
9740,0.03,0.60,0.80
9750,0.03,0.60,0.80
9759,0.03,0.60,0.80
9769,0.03,0.60,0.79
9778,0.04,0.60,0.79
9788,0.04,0.60,0.80
9798,0.04,0.60,0.80
9807,0.03,0.60,0.80
9817,0.03,0.60,0.80
9826,0.03,0.60,0.79
9836,0.03,0.60,0.79
9846,0.03,0.60,0.80
9855,0.03,0.60,0.80
9865,0.03,0.61,0.80
9875,0.03,0.61,0.80
9884,0.03,0.60,0.79
9894,0.04,0.60,0.79
9903,0.04,0.60,0.79
9913,0.03,0.59,0.80
9923,0.02,0.59,0.80
9932,0.02,0.60,0.81
9942,0.01,0.60,0.81
9951,0.01,0.60,0.82
9961,0.01,0.60,0.82
9971,0.01,0.60,0.82
9980,0.02,0.60,0.81
9990,0.02,0.60,0.80
10000,0.03,0.60,0.79
10009,0.03,0.60,0.78
10019,0.04,0.60,0.78
10028,0.04,0.61,0.77
10038,0.04,0.61,0.78
10048,0.04,0.61,0.78
10057,0.04,0.60,0.77
10067,0.03,0.61,0.78
10076,0.03,0.62,0.78
10086,0.03,0.61,0.78
10096,0.03,0.61,0.78
10105,0.03,0.61,0.78
10115,0.03,0.61,0.78
10125,0.03,0.61,0.79
10134,0.02,0.61,0.79
10144,0.02,0.61,0.80
10153,0.02,0.61,0.79
10163,0.02,0.60,0.80
10173,0.02,0.60,0.80
10182,0.02,0.59,0.81
10192,0.02,0.59,0.81
10201,0.01,0.59,0.81
10211,0.01,0.59,0.81
10221,0.02,0.59,0.80
10230,0.02,0.59,0.80
10240,0.02,0.59,0.80
10250,0.02,0.60,0.80
10259,0.02,0.60,0.80
10269,0.02,0.61,0.79
10278,0.02,0.60,0.79
10288,0.02,0.61,0.80
10298,0.02,0.60,0.80
10307,0.02,0.59,0.81
10317,0.01,0.58,0.81
10326,0.01,0.57,0.82
10336,0.01,0.57,0.82
10346,0.01,0.57,0.82
10355,0.01,0.57,0.81
10365,0.01,0.58,0.81
10375,0.01,0.59,0.80
10384,0.01,0.60,0.80
10394,0.01,0.59,0.81
10403,0.01,0.59,0.80
10413,0.01,0.59,0.81
10423,0.01,0.59,0.81
10432,0.01,0.59,0.80
10442,0.01,0.59,0.80
10451,0.00,0.59,0.81
10461,0.01,0.59,0.80
10471,0.02,0.58,0.80
10480,0.02,0.58,0.80
10490,0.02,0.58,0.80
10500,0.02,0.59,0.79
10509,0.02,0.59,0.80
10519,0.01,0.59,0.80
10528,0.01,0.59,0.80
10538,0.00,0.59,0.80
10548,0.01,0.59,0.80
10557,0.01,0.60,0.81
10567,0.01,0.59,0.80
10576,0.01,0.59,0.80
10586,0.01,0.58,0.80
10596,0.01,0.58,0.80
10605,0.01,0.58,0.80
10615,0.01,0.58,0.80
10625,0.01,0.57,0.80
10634,0.01,0.58,0.80
10644,0.01,0.58,0.81
10653,0.01,0.58,0.82
10663,-0.00,0.57,0.83
10673,-0.01,0.57,0.83
10682,-0.00,0.57,0.83
10692,0.01,0.57,0.83
10701,0.01,0.56,0.83
10711,0.00,0.55,0.83
10721,-0.00,0.55,0.83
10730,-0.00,0.56,0.82
10740,0.01,0.56,0.82
10750,0.01,0.56,0.82
10759,0.01,0.56,0.82
10769,0.00,0.57,0.82
10778,-0.00,0.57,0.83
10788,-0.00,0.57,0.83
10798,0.00,0.56,0.83
10807,-0.00,0.56,0.83
10817,-0.00,0.56,0.82
10826,-0.00,0.56,0.82
10836,0.00,0.57,0.83
10846,0.01,0.56,0.83
10855,0.01,0.55,0.84
10865,0.00,0.54,0.84
10875,-0.00,0.54,0.84
10884,0.00,0.54,0.84
10894,0.00,0.54,0.84
10903,-0.00,0.55,0.84
10913,0.00,0.56,0.83
10923,0.00,0.56,0.83
10932,0.01,0.57,0.82
10942,0.01,0.57,0.82
10951,0.01,0.57,0.82
10961,0.01,0.55,0.81
10971,0.01,0.55,0.81
10980,0.01,0.54,0.81
10990,0.01,0.55,0.82
11000,0.01,0.55,0.82
11009,0.00,0.56,0.83
11019,-0.00,0.57,0.83
11028,0.00,0.57,0.83
11038,-0.00,0.57,0.83
11048,0.00,0.56,0.83
11057,0.01,0.55,0.82
11067,0.01,0.54,0.80
11076,0.03,0.54,0.79
11086,0.03,0.55,0.80
11096,0.03,0.56,0.81
11105,0.02,0.57,0.82
11115,0.01,0.58,0.82
11125,-0.00,0.58,0.83
11134,-0.01,0.58,0.84
11144,-0.01,0.57,0.83
11153,-0.00,0.55,0.82
11163,0.01,0.55,0.82
11173,0.01,0.55,0.82
11182,0.01,0.55,0.81
11192,0.01,0.56,0.82
11201,0.00,0.57,0.83
11211,-0.01,0.57,0.83
11221,-0.01,0.57,0.84
11230,0.00,0.57,0.83
11240,0.01,0.56,0.83
11250,0.01,0.55,0.83
11259,0.01,0.55,0.83
11269,0.01,0.56,0.83
11278,0.02,0.55,0.83
11288,0.02,0.55,0.83
11298,0.01,0.54,0.83
11307,0.00,0.54,0.84
11317,0.00,0.54,0.84
11326,-0.00,0.55,0.84
11336,-0.00,0.56,0.83
11346,0.00,0.57,0.83
11355,0.01,0.57,0.83
11365,0.01,0.57,0.82
11375,0.01,0.56,0.82
11384,0.01,0.54,0.82
11394,0.00,0.54,0.83
11403,-0.00,0.54,0.84
11413,0.00,0.55,0.83
11423,0.01,0.56,0.82
11432,0.01,0.58,0.81
11442,0.01,0.59,0.80
11451,0.01,0.59,0.80
11461,0.02,0.59,0.79
11471,0.03,0.58,0.79
11480,0.03,0.57,0.79
11490,0.02,0.57,0.81
11500,0.02,0.56,0.82
11509,0.02,0.55,0.83
11519,0.01,0.55,0.83
11528,0.00,0.54,0.83
11538,-0.00,0.55,0.83
11548,-0.00,0.55,0.84
11557,-0.00,0.56,0.84
11567,0.00,0.56,0.84
11576,0.01,0.55,0.83
11586,0.01,0.55,0.83
11596,0.02,0.55,0.83
11605,0.02,0.55,0.82
11615,0.01,0.55,0.82
11625,0.01,0.55,0.82
11634,0.01,0.56,0.82
11644,0.00,0.57,0.82
11653,0.00,0.57,0.82
11663,-0.00,0.57,0.82
11673,0.00,0.57,0.82
11682,0.01,0.57,0.82
11692,0.01,0.57,0.82
11701,0.02,0.56,0.82
11711,0.01,0.55,0.83
11721,0.02,0.55,0.83
11730,0.02,0.54,0.82
11740,0.02,0.54,0.83
11750,0.02,0.55,0.83
11759,0.01,0.56,0.83
11769,0.01,0.57,0.83
11778,0.00,0.58,0.83
11788,0.00,0.58,0.82
11798,0.01,0.58,0.81
11807,0.02,0.58,0.81
11817,0.02,0.56,0.80
11826,0.02,0.55,0.80
11836,0.02,0.54,0.81
11846,0.01,0.55,0.82
11855,0.01,0.55,0.83
11865,0.01,0.55,0.84
11875,0.01,0.54,0.83
11884,0.00,0.54,0.83
11894,-0.00,0.54,0.83
11903,-0.00,0.54,0.82
11913,0.00,0.54,0.82
11923,0.00,0.55,0.83
11932,0.00,0.55,0.84
11942,-0.00,0.56,0.84
11951,0.00,0.55,0.84
11961,0.01,0.54,0.84
11971,0.01,0.53,0.83
11980,-0.00,0.52,0.84
11990,-0.00,0.52,0.84
12000,-0.00,0.52,0.85
12009,-0.01,0.52,0.85
12019,-0.01,0.53,0.85
12028,-0.02,0.54,0.85
12038,-0.02,0.54,0.85
12048,-0.02,0.54,0.85
12057,-0.02,0.55,0.85
12067,-0.01,0.54,0.85
12076,-0.00,0.53,0.84
12086,0.00,0.53,0.84
12096,0.01,0.53,0.84
12105,0.01,0.53,0.84
12115,0.01,0.52,0.85
12125,0.00,0.52,0.85
12134,-0.01,0.52,0.85
12144,-0.02,0.53,0.85
12153,-0.02,0.54,0.85
12163,-0.02,0.54,0.85
12173,-0.01,0.55,0.84
12182,-0.01,0.55,0.83
12192,-0.00,0.54,0.82
12201,0.00,0.55,0.83
12211,0.01,0.55,0.83
12221,0.00,0.53,0.84
12230,-0.01,0.53,0.83
12240,-0.01,0.53,0.84
12250,-0.01,0.54,0.84
12259,-0.00,0.54,0.84
12269,0.00,0.54,0.83
12278,0.00,0.54,0.83
12288,0.00,0.54,0.83
12298,0.00,0.54,0.83
12307,-0.00,0.54,0.84
12317,-0.00,0.53,0.85
12326,-0.01,0.53,0.85
12336,-0.01,0.53,0.85
12346,-0.02,0.53,0.86
12355,-0.02,0.53,0.87
12365,-0.02,0.53,0.86
12375,-0.02,0.52,0.85
12384,-0.01,0.53,0.84
12394,0.01,0.53,0.83
12403,0.01,0.54,0.82
12413,0.01,0.54,0.82
12423,0.01,0.54,0.81
12432,0.00,0.55,0.82
12442,-0.01,0.56,0.82
12451,-0.01,0.56,0.83
12461,-0.02,0.55,0.84
12471,-0.02,0.55,0.83
12480,-0.01,0.55,0.83
12490,-0.00,0.54,0.84
12500,-0.00,0.53,0.84
12509,-0.01,0.53,0.84
12519,-0.01,0.53,0.85
12528,-0.01,0.53,0.85
12538,-0.01,0.53,0.85
12548,-0.00,0.53,0.84
12557,-0.00,0.54,0.84
12567,0.00,0.53,0.84
12576,0.00,0.52,0.84
12586,-0.00,0.52,0.85
12596,-0.01,0.53,0.85
12605,-0.01,0.53,0.84
12615,-0.01,0.53,0.84
12625,-0.00,0.54,0.84
12634,-0.00,0.54,0.84
12644,-0.00,0.54,0.84
12653,0.00,0.53,0.84
12663,-0.00,0.52,0.85
12673,-0.00,0.52,0.86
12682,0.00,0.52,0.86
12692,0.00,0.52,0.84
12701,0.00,0.52,0.84
12711,0.00,0.53,0.84
12721,-0.00,0.52,0.84
12730,-0.00,0.53,0.84
12740,-0.01,0.53,0.85
12750,-0.01,0.53,0.84
12759,-0.00,0.53,0.84
12769,0.00,0.53,0.84
12778,0.00,0.53,0.84
12788,0.00,0.53,0.84
12798,-0.00,0.53,0.85
12807,-0.01,0.53,0.85
12817,-0.01,0.52,0.85
12826,-0.01,0.52,0.85
12836,-0.00,0.53,0.85
12846,0.00,0.53,0.85
12855,0.01,0.53,0.84
12865,0.01,0.52,0.84
12875,0.01,0.52,0.84
12884,0.00,0.52,0.85
12894,0.00,0.52,0.85
12903,0.00,0.52,0.85
12913,-0.00,0.52,0.85
12923,-0.01,0.53,0.85
12932,-0.00,0.53,0.85
12942,-0.00,0.52,0.85
12951,0.00,0.52,0.85
12961,0.00,0.52,0.85
12971,0.01,0.52,0.84
12980,0.01,0.52,0.85
12990,0.01,0.53,0.85
13000,0.01,0.52,0.85
13009,0.00,0.52,0.85
13019,0.00,0.51,0.85
13028,0.01,0.51,0.85
13038,0.01,0.52,0.85
13048,0.01,0.52,0.85
13057,0.01,0.53,0.85
13067,0.00,0.53,0.85
13076,0.00,0.52,0.85
13086,0.00,0.52,0.85
13096,0.01,0.52,0.85
13105,0.01,0.52,0.85
13115,0.02,0.51,0.85
13125,0.02,0.50,0.85
13134,0.01,0.51,0.85
13144,0.01,0.52,0.85
13153,0.01,0.52,0.85
13163,0.01,0.52,0.85
13173,0.00,0.52,0.85
13182,0.00,0.52,0.85
13192,0.00,0.52,0.85
13201,0.01,0.52,0.84
13211,0.02,0.52,0.84
13221,0.02,0.52,0.84
13230,0.02,0.52,0.84
13240,0.01,0.51,0.85
13250,0.01,0.51,0.85
13259,0.00,0.51,0.86
13269,0.01,0.51,0.86
13278,0.01,0.51,0.86
13288,0.01,0.51,0.86
13298,0.01,0.51,0.86
13307,0.01,0.51,0.85
13317,0.01,0.51,0.85
13326,0.01,0.51,0.85
13336,0.01,0.51,0.85
13346,0.02,0.51,0.86
13355,0.02,0.50,0.86
13365,0.01,0.50,0.86
13375,0.01,0.50,0.86
13384,0.01,0.50,0.85
13394,0.01,0.51,0.85
13403,0.01,0.50,0.86
13413,0.01,0.50,0.86
13423,0.01,0.50,0.87
13432,0.01,0.50,0.87
13442,0.01,0.50,0.86
13451,0.01,0.50,0.86
13461,0.01,0.50,0.86
13471,0.01,0.50,0.86
13480,0.01,0.49,0.86
13490,0.02,0.49,0.85
13500,0.02,0.50,0.85
13509,0.02,0.50,0.85
13519,0.02,0.51,0.85
13528,0.02,0.51,0.86
13538,0.01,0.51,0.86
13548,0.01,0.51,0.87
13557,0.00,0.49,0.87
13567,0.00,0.48,0.87
13576,0.01,0.48,0.87
13586,0.01,0.48,0.87
13596,0.02,0.49,0.87
13605,0.02,0.49,0.86
13615,0.02,0.49,0.86
13625,0.02,0.49,0.86
13634,0.01,0.50,0.87
13644,0.01,0.50,0.87
13653,0.00,0.49,0.88
13663,0.00,0.49,0.87
13673,0.01,0.49,0.86
13682,0.01,0.49,0.86
13692,0.01,0.50,0.85
13701,0.01,0.50,0.85
13711,0.02,0.51,0.85
13721,0.02,0.50,0.86
13730,0.01,0.49,0.86
13740,0.01,0.49,0.87
13750,0.01,0.49,0.88
13759,0.01,0.48,0.87
13769,0.02,0.48,0.87
13778,0.02,0.49,0.87
13788,0.02,0.49,0.86
13798,0.02,0.49,0.86
13807,0.02,0.49,0.86
13817,0.02,0.49,0.87
13826,0.01,0.49,0.87
13836,0.01,0.49,0.87
13846,0.01,0.49,0.87
13855,0.02,0.48,0.87
13865,0.02,0.48,0.87
13875,0.01,0.48,0.87
13884,0.01,0.49,0.87
13894,0.01,0.49,0.87
13903,0.01,0.49,0.87
13913,0.01,0.49,0.87
13923,0.02,0.48,0.87
13932,0.02,0.48,0.86
13942,0.02,0.48,0.86
13951,0.02,0.48,0.86
13961,0.02,0.49,0.86
13971,0.01,0.49,0.86
13980,0.01,0.49,0.87
13990,0.00,0.49,0.87
14000,0.00,0.49,0.87
14009,0.01,0.49,0.87
14019,0.01,0.49,0.86
14028,0.01,0.48,0.87
14038,0.01,0.48,0.87
14048,0.01,0.48,0.87
14057,0.01,0.48,0.87
14067,0.01,0.48,0.88
14076,0.01,0.48,0.88
14086,0.01,0.48,0.88
14096,0.01,0.48,0.88
14105,0.01,0.48,0.88
14115,0.01,0.47,0.88
14125,0.01,0.47,0.88
14134,0.00,0.47,0.88
14144,0.01,0.47,0.88
14153,0.01,0.47,0.87
14163,0.00,0.47,0.88
14173,0.00,0.48,0.88
14182,0.00,0.48,0.88
14192,-0.00,0.48,0.88
14201,-0.00,0.48,0.88
14211,-0.00,0.47,0.89
14221,0.00,0.46,0.88
14230,0.01,0.46,0.87
14240,0.01,0.47,0.87
14250,0.01,0.47,0.86
14259,0.00,0.48,0.86
14269,0.00,0.49,0.87
14278,-0.00,0.49,0.87
14288,-0.01,0.48,0.87
14298,-0.00,0.48,0.87
14307,0.00,0.48,0.87
14317,0.00,0.47,0.88
14326,0.00,0.47,0.88
14336,-0.00,0.47,0.88
14346,-0.01,0.47,0.88
14355,-0.01,0.48,0.88
14365,-0.01,0.48,0.88
14375,-0.01,0.48,0.88
14384,-0.01,0.47,0.88
14394,-0.01,0.47,0.88
14403,-0.00,0.47,0.87
14413,-0.00,0.47,0.87
14423,-0.01,0.47,0.87
14432,-0.01,0.47,0.87
14442,-0.01,0.48,0.87
14451,-0.01,0.48,0.87
14461,-0.00,0.48,0.87
14471,-0.00,0.47,0.87
14480,-0.00,0.48,0.88
14490,-0.01,0.48,0.88
14500,-0.01,0.47,0.88
14509,-0.01,0.46,0.87
14519,-0.00,0.47,0.88
14528,-0.00,0.47,0.87
14538,0.00,0.47,0.87
14548,0.00,0.47,0.87
14557,-0.00,0.47,0.87
14567,-0.01,0.47,0.88
14576,-0.01,0.47,0.88
14586,-0.01,0.47,0.89
14596,-0.01,0.47,0.88
14605,-0.01,0.47,0.88
14615,-0.01,0.47,0.88
14625,-0.00,0.47,0.88
14634,-0.00,0.47,0.88
14644,-0.00,0.47,0.88
14653,-0.00,0.47,0.88
14663,-0.01,0.47,0.87
14673,-0.01,0.47,0.87
14682,-0.00,0.47,0.87
14692,-0.00,0.48,0.87
14701,0.00,0.48,0.87
14711,-0.00,0.48,0.87
14721,0.00,0.48,0.87
14730,0.00,0.47,0.87
14740,-0.01,0.47,0.88
14750,-0.01,0.47,0.88
14759,-0.01,0.47,0.88
14769,-0.01,0.47,0.88
14778,-0.00,0.47,0.87
14788,0.00,0.48,0.87
14798,0.00,0.48,0.87
14807,-0.00,0.47,0.87
14817,-0.00,0.47,0.88
14826,-0.00,0.47,0.88
14836,-0.01,0.47,0.88
14846,-0.00,0.47,0.88
14855,0.00,0.47,0.88
14865,0.00,0.47,0.88
14875,-0.00,0.47,0.88
14884,0.00,0.46,0.87
14894,-0.00,0.46,0.87
14903,-0.01,0.47,0.88
14913,-0.01,0.48,0.88
14923,-0.01,0.47,0.88
14932,-0.01,0.47,0.88
14942,-0.01,0.46,0.88
14951,-0.00,0.47,0.87
14961,0.00,0.47,0.87
14971,-0.00,0.47,0.88
14980,-0.00,0.47,0.87
14990,-0.01,0.46,0.87
15000,-0.01,0.47,0.87
15009,-0.01,0.47,0.88
15019,0.00,0.48,0.88
15028,0.00,0.47,0.88
15038,-0.01,0.47,0.88
15048,-0.01,0.47,0.89
15057,-0.00,0.46,0.88
15067,-0.00,0.46,0.88
15076,-0.01,0.46,0.89
15086,-0.00,0.47,0.89
15096,0.00,0.47,0.88
15105,0.00,0.47,0.88
15115,-0.00,0.47,0.87
15125,-0.00,0.47,0.87
15134,-0.01,0.48,0.87
15144,-0.01,0.47,0.87
15153,-0.01,0.47,0.87
15163,-0.01,0.48,0.87
15173,-0.01,0.48,0.87
15182,-0.00,0.47,0.87
15192,-0.00,0.47,0.87
15201,-0.00,0.46,0.88
15211,-0.01,0.46,0.88
15221,-0.01,0.47,0.89
15230,-0.01,0.47,0.88
15240,-0.01,0.46,0.87
15250,-0.00,0.46,0.88
15259,0.00,0.47,0.87
15269,0.00,0.47,0.87
15278,0.00,0.47,0.87
15288,-0.00,0.47,0.88
15298,-0.01,0.47,0.88
15307,-0.01,0.46,0.88
15317,-0.00,0.46,0.88
15326,-0.00,0.46,0.88
15336,-0.00,0.47,0.88
15346,-0.00,0.46,0.88
15355,-0.00,0.46,0.88
15365,-0.00,0.47,0.88
15375,-0.00,0.47,0.88
15384,-0.00,0.47,0.88
15394,0.00,0.46,0.87
15403,0.00,0.46,0.87
15413,-0.00,0.47,0.87
15423,-0.00,0.47,0.88
15432,-0.00,0.47,0.88
15442,-0.01,0.47,0.88
15451,-0.01,0.47,0.88
15461,-0.00,0.47,0.88
15471,-0.00,0.47,0.88
15480,-0.00,0.47,0.87
15490,-0.00,0.47,0.88
15500,-0.00,0.47,0.88
15509,0.00,0.46,0.88
15519,0.00,0.46,0.87
15528,0.00,0.46,0.87
15538,0.00,0.46,0.87
15548,-0.00,0.46,0.88
15557,-0.00,0.46,0.87
15567,-0.00,0.45,0.87
15576,-0.01,0.46,0.87
15586,-0.01,0.46,0.88
15596,-0.00,0.47,0.88
15605,0.00,0.46,0.88
15615,0.00,0.46,0.88
15625,0.01,0.46,0.87
15634,0.01,0.46,0.88
15644,0.00,0.46,0.88
15653,-0.00,0.46,0.89
15663,-0.00,0.45,0.89
15673,-0.01,0.44,0.90
15682,-0.01,0.45,0.91
15692,-0.01,0.44,0.90
15701,-0.01,0.43,0.90
15711,-0.02,0.44,0.90
15721,-0.02,0.44,0.90
15730,-0.02,0.44,0.90
15740,-0.01,0.44,0.89
15750,-0.02,0.44,0.89
15759,-0.01,0.45,0.88
15769,-0.01,0.45,0.88
15778,-0.01,0.45,0.88
15788,-0.01,0.46,0.89
15798,-0.01,0.46,0.89
15807,-0.01,0.45,0.89
15817,-0.01,0.45,0.89
15826,-0.01,0.45,0.89
15836,0.00,0.45,0.89
15846,0.01,0.45,0.89
15855,0.01,0.44,0.89
15865,0.01,0.44,0.89
15875,0.01,0.44,0.89
15884,0.01,0.44,0.89
15894,0.01,0.45,0.89
15903,0.01,0.45,0.89
15913,0.02,0.45,0.89
15923,0.02,0.45,0.89
15932,0.02,0.45,0.89
15942,0.01,0.45,0.89
15951,0.01,0.45,0.89
15961,0.00,0.44,0.89
15971,0.00,0.44,0.89
15980,0.00,0.44,0.89
15990,0.00,0.45,0.89
16000,0.01,0.45,0.88
16009,0.00,0.45,0.88
16019,0.00,0.45,0.89
16028,0.00,0.45,0.89
16038,0.00,0.44,0.89
16048,0.00,0.44,0.89
16057,0.00,0.44,0.89
16067,0.01,0.43,0.89
16076,-0.00,0.43,0.89
16086,-0.01,0.44,0.90
16096,-0.01,0.44,0.90
16105,-0.01,0.44,0.90
16115,-0.01,0.44,0.90
16125,-0.01,0.44,0.90
16134,-0.01,0.44,0.90
16144,-0.01,0.44,0.90
16153,-0.00,0.44,0.90
16163,-0.00,0.43,0.90
16173,-0.00,0.43,0.90
16182,-0.00,0.43,0.90
16192,-0.00,0.44,0.90
16201,-0.00,0.44,0.90
16211,-0.00,0.44,0.89
16221,-0.00,0.44,0.89
16230,0.00,0.44,0.88
16240,0.00,0.45,0.88
16250,0.00,0.45,0.88
16259,0.00,0.45,0.88
16269,-0.00,0.45,0.88
16278,-0.00,0.45,0.89
16288,-0.01,0.45,0.89
16298,-0.01,0.45,0.89
16307,-0.01,0.44,0.90
16317,-0.01,0.44,0.90
16326,-0.01,0.44,0.89
16336,-0.01,0.44,0.89
16346,-0.01,0.44,0.89
16355,-0.01,0.44,0.89
16365,-0.01,0.44,0.89
16375,-0.00,0.44,0.89
16384,-0.01,0.44,0.89
16394,-0.01,0.43,0.89
16403,-0.02,0.44,0.89
16413,-0.01,0.44,0.90
16423,-0.01,0.44,0.89
16432,-0.01,0.45,0.89
16442,-0.01,0.45,0.89
16451,-0.01,0.45,0.89
16461,-0.01,0.45,0.89
16471,-0.01,0.44,0.89
16480,-0.01,0.44,0.88
16490,-0.01,0.44,0.88
16500,-0.01,0.44,0.89
16509,-0.01,0.45,0.89
16519,-0.02,0.45,0.89
16528,-0.01,0.45,0.89
16538,-0.02,0.45,0.88
16548,-0.02,0.45,0.88
16557,-0.02,0.46,0.89
16567,-0.02,0.45,0.89
16576,-0.01,0.44,0.89
16586,-0.01,0.44,0.89
16596,-0.01,0.44,0.88
16605,-0.01,0.44,0.88
16615,-0.02,0.45,0.88
16625,-0.02,0.46,0.88
16634,-0.02,0.46,0.89
16644,-0.01,0.46,0.89
16653,-0.02,0.46,0.89
16663,-0.02,0.46,0.89
16673,-0.02,0.45,0.90
16682,-0.02,0.44,0.90
16692,-0.02,0.43,0.90
16701,-0.03,0.43,0.90
16711,-0.03,0.44,0.90
16721,-0.02,0.44,0.89
16730,-0.02,0.45,0.89
16740,-0.02,0.45,0.88
16750,-0.02,0.45,0.88
16759,-0.02,0.46,0.88
16769,-0.02,0.46,0.88
16778,-0.02,0.46,0.88
16788,-0.02,0.46,0.88
16798,-0.02,0.46,0.88
16807,-0.02,0.45,0.88
16817,-0.02,0.45,0.89
16826,-0.02,0.45,0.89
16836,-0.02,0.45,0.89
16846,-0.02,0.45,0.89
16855,-0.02,0.45,0.89
16865,-0.02,0.44,0.89
16875,-0.02,0.44,0.89
16884,-0.02,0.44,0.88
16894,-0.02,0.44,0.88
16903,-0.01,0.45,0.88
16913,-0.01,0.46,0.88
16923,-0.02,0.46,0.88
16932,-0.02,0.46,0.89
16942,-0.02,0.45,0.89
16951,-0.03,0.45,0.89
16961,-0.03,0.45,0.89
16971,-0.03,0.45,0.90
16980,-0.03,0.45,0.89
16990,-0.03,0.45,0.89
17000,-0.03,0.46,0.89
17009,-0.03,0.46,0.89
17019,-0.03,0.45,0.89
17028,-0.03,0.45,0.89
17038,-0.03,0.45,0.89
17048,-0.02,0.45,0.88
17057,-0.02,0.45,0.88
17067,-0.02,0.45,0.88
17076,-0.02,0.45,0.88
17086,-0.03,0.45,0.89
17096,-0.03,0.46,0.88
17105,-0.03,0.46,0.89
17115,-0.03,0.46,0.89
17125,-0.02,0.46,0.89
17134,-0.02,0.45,0.89
17144,-0.02,0.45,0.89
17153,-0.03,0.45,0.89
17163,-0.03,0.45,0.89
17173,-0.03,0.45,0.89
17182,-0.03,0.45,0.88
17192,-0.02,0.45,0.88
17201,-0.03,0.46,0.89
17211,-0.03,0.45,0.89
17221,-0.03,0.45,0.89
17230,-0.03,0.45,0.89
17240,-0.03,0.45,0.89
17250,-0.03,0.45,0.88
17259,-0.02,0.46,0.88
17269,-0.02,0.46,0.88
17278,-0.02,0.46,0.88
17288,-0.02,0.46,0.88
17298,-0.03,0.46,0.88
17307,-0.03,0.46,0.89
17317,-0.03,0.46,0.89
17326,-0.03,0.45,0.89
17336,-0.03,0.45,0.88
17346,-0.03,0.46,0.88
17355,-0.03,0.46,0.88
17365,-0.03,0.46,0.88
17375,-0.03,0.46,0.88
17384,-0.02,0.45,0.88
17394,-0.03,0.46,0.88
17403,-0.03,0.46,0.89
17413,-0.03,0.45,0.88
17423,-0.03,0.45,0.88
17432,-0.03,0.46,0.89
17442,-0.03,0.46,0.89
17451,-0.03,0.46,0.89
17461,-0.03,0.46,0.88
17471,-0.03,0.46,0.87
17480,-0.02,0.46,0.87
17490,-0.02,0.46,0.87
17500,-0.02,0.47,0.87
17509,-0.02,0.47,0.87
17519,-0.03,0.47,0.88
17528,-0.03,0.47,0.88
17538,-0.03,0.46,0.89
17548,-0.03,0.46,0.89
17557,-0.01,0.46,0.89
17567,-0.04,0.46,0.88
17576,-0.05,0.45,0.89
17586,-0.04,0.45,0.89
17596,-0.04,0.45,0.89
17605,-0.03,0.45,0.89
17615,-0.03,0.46,0.88
17625,-0.02,0.46,0.87
17634,-0.03,0.46,0.87
17644,-0.03,0.46,0.87
17653,-0.03,0.47,0.88
17663,-0.04,0.47,0.88
17673,-0.05,0.47,0.88
17682,-0.04,0.47,0.88
17692,-0.03,0.46,0.88
17701,-0.04,0.46,0.89
17711,-0.04,0.45,0.89
17721,-0.03,0.45,0.89
17730,-0.03,0.45,0.88
17740,-0.03,0.45,0.88
17750,-0.03,0.46,0.88
17759,-0.03,0.46,0.88
17769,-0.03,0.46,0.88
17778,-0.03,0.46,0.88
17788,-0.03,0.46,0.88
17798,-0.03,0.46,0.88
17807,-0.04,0.46,0.88
17817,-0.04,0.46,0.88
17826,-0.04,0.46,0.88
17836,-0.04,0.46,0.89
17846,-0.04,0.46,0.89
17855,-0.04,0.46,0.89
17865,-0.04,0.45,0.89
17875,-0.04,0.45,0.89
17884,-0.04,0.45,0.88
17894,-0.04,0.45,0.88
17903,-0.03,0.45,0.88
17913,-0.03,0.45,0.88
17923,-0.03,0.46,0.87
17932,-0.03,0.46,0.88
17942,-0.03,0.46,0.88
17951,-0.03,0.46,0.88
17961,-0.04,0.46,0.88
17971,-0.04,0.46,0.88
17980,-0.04,0.47,0.88
17990,-0.04,0.47,0.88
18000,-0.03,0.47,0.88
18009,-0.03,0.46,0.88
18019,-0.03,0.45,0.88
18028,-0.04,0.45,0.89
18038,-0.04,0.44,0.89
18048,-0.04,0.45,0.89
18057,-0.04,0.46,0.88
18067,-0.04,0.47,0.88
18076,-0.03,0.47,0.88
18086,-0.03,0.47,0.88
18096,-0.03,0.46,0.88
18105,-0.04,0.46,0.88
18115,-0.04,0.46,0.88
18125,-0.03,0.45,0.88
18134,-0.04,0.46,0.88
18144,-0.04,0.46,0.88
18153,-0.04,0.46,0.89
18163,-0.04,0.46,0.89
18173,-0.04,0.46,0.89
18182,-0.04,0.45,0.89
18192,-0.04,0.46,0.89
18201,-0.04,0.46,0.88
18211,-0.04,0.46,0.88
18221,-0.04,0.46,0.88
18230,-0.03,0.45,0.87
18240,-0.03,0.45,0.88
18250,-0.04,0.46,0.88
18259,-0.04,0.46,0.88
18269,-0.04,0.46,0.88
18278,-0.03,0.46,0.88
18288,-0.04,0.46,0.89
18298,-0.04,0.46,0.89
18307,-0.04,0.45,0.89
18317,-0.04,0.45,0.89
18326,-0.04,0.45,0.88
18336,-0.04,0.45,0.88
18346,-0.03,0.46,0.88
18355,-0.03,0.47,0.88
18365,-0.03,0.47,0.88
18375,-0.04,0.46,0.88
18384,-0.04,0.46,0.88
18394,-0.04,0.46,0.88
18403,-0.04,0.46,0.89
18413,-0.04,0.45,0.89
18423,-0.04,0.45,0.89
18432,-0.04,0.45,0.89
18442,-0.04,0.45,0.89
18451,-0.04,0.45,0.89
18461,-0.04,0.45,0.88
18471,-0.04,0.46,0.88
18480,-0.04,0.47,0.87
18490,-0.04,0.47,0.87
18500,-0.03,0.47,0.88
18509,-0.03,0.47,0.88
18519,-0.03,0.47,0.88
18528,-0.03,0.46,0.88
18538,-0.04,0.46,0.88
18548,-0.04,0.45,0.88
18557,-0.04,0.46,0.89
18567,-0.04,0.46,0.89
18576,-0.04,0.46,0.89
18586,-0.04,0.46,0.89
18596,-0.03,0.46,0.88
18605,-0.03,0.46,0.88
18615,-0.03,0.45,0.88
18625,-0.03,0.45,0.88
18634,-0.03,0.46,0.88
18644,-0.04,0.46,0.88
18653,-0.04,0.46,0.88
18663,-0.04,0.46,0.89
18673,-0.04,0.47,0.89
18682,-0.04,0.47,0.89
18692,-0.04,0.47,0.89
18701,-0.04,0.46,0.90
18711,-0.04,0.46,0.90
18721,-0.04,0.45,0.90
18730,-0.04,0.45,0.89
18740,-0.03,0.45,0.88
18750,-0.03,0.45,0.88
18759,-0.03,0.45,0.88
18769,-0.03,0.45,0.88
18778,-0.03,0.46,0.88
18788,-0.03,0.46,0.88
18798,-0.02,0.47,0.87
18807,-0.02,0.47,0.87
18817,-0.02,0.47,0.87
18826,-0.02,0.47,0.87
18836,-0.02,0.46,0.87
18846,-0.02,0.46,0.88
18855,-0.03,0.46,0.89
18865,-0.03,0.45,0.89
18875,-0.03,0.45,0.89
18884,-0.03,0.45,0.88
18894,-0.03,0.45,0.88
18903,-0.03,0.45,0.88
18913,-0.03,0.46,0.88
18923,-0.03,0.46,0.88
18932,-0.03,0.46,0.88
18942,-0.03,0.46,0.89
18951,-0.03,0.46,0.89
18961,-0.03,0.46,0.88
18971,-0.03,0.46,0.88
18980,-0.02,0.46,0.88
18990,-0.02,0.46,0.88
19000,-0.02,0.45,0.88
19009,-0.02,0.45,0.89
19019,-0.02,0.45,0.89
19028,-0.03,0.45,0.90
19038,-0.03,0.45,0.90
19048,-0.03,0.44,0.90
19057,-0.03,0.44,0.89
19067,-0.03,0.45,0.89
19076,-0.02,0.45,0.90
19086,-0.01,0.45,0.89
19096,-0.01,0.45,0.89
19105,-0.00,0.45,0.89
19115,-0.00,0.44,0.90
19125,-0.01,0.43,0.89
19134,-0.01,0.43,0.89
19144,-0.02,0.44,0.89
19153,-0.02,0.44,0.89
19163,-0.02,0.45,0.88
19173,-0.02,0.46,0.88
19182,-0.02,0.47,0.88
19192,-0.03,0.47,0.87
19201,-0.03,0.46,0.87
19211,-0.04,0.46,0.88
19221,-0.04,0.45,0.88
19230,-0.04,0.45,0.88
19240,-0.04,0.45,0.88
19250,-0.04,0.45,0.89
19259,-0.03,0.46,0.89
19269,-0.03,0.46,0.88
19278,-0.03,0.46,0.88
19288,-0.03,0.46,0.89
19298,-0.02,0.45,0.89
19307,-0.02,0.45,0.88
19317,-0.02,0.45,0.89
19326,-0.02,0.46,0.89
19336,-0.02,0.45,0.89
19346,-0.02,0.45,0.89
19355,-0.02,0.45,0.89
19365,-0.03,0.45,0.89
19375,-0.03,0.45,0.89
19384,-0.02,0.46,0.89
19394,-0.02,0.46,0.89
19403,-0.01,0.45,0.88
19413,-0.01,0.44,0.88
19423,-0.00,0.44,0.88
19432,-0.01,0.44,0.88
19442,-0.01,0.44,0.89
19451,-0.01,0.44,0.89
19461,-0.02,0.45,0.90
19471,-0.02,0.45,0.90
19480,-0.02,0.45,0.89
19490,-0.02,0.46,0.89
19500,-0.01,0.45,0.89
19509,-0.01,0.45,0.89
19519,-0.01,0.44,0.89
19528,-0.01,0.43,0.89
19538,-0.01,0.43,0.89
19548,-0.02,0.44,0.89
19557,-0.02,0.45,0.89
19567,-0.02,0.45,0.89
19576,-0.02,0.46,0.89
19586,-0.02,0.45,0.89
19596,-0.02,0.45,0.88
19605,-0.01,0.45,0.88
19615,-0.01,0.45,0.88
19625,-0.01,0.44,0.87
19634,-0.01,0.45,0.87
19644,-0.02,0.45,0.88
19653,-0.03,0.46,0.88
19663,-0.03,0.46,0.89
19673,-0.03,0.46,0.89
19682,-0.03,0.45,0.89
19692,-0.01,0.45,0.89
19701,-0.01,0.45,0.89
19711,-0.01,0.44,0.89
19721,-0.00,0.44,0.89
19730,-0.00,0.44,0.89
19740,-0.00,0.44,0.89
19750,-0.01,0.44,0.89
19759,-0.01,0.44,0.89
19769,-0.02,0.44,0.90
19778,-0.02,0.44,0.90
19788,-0.02,0.44,0.90
19798,-0.02,0.44,0.90
19807,-0.01,0.44,0.89
19817,-0.01,0.44,0.89
19826,-0.00,0.44,0.89
19836,0.00,0.44,0.88
19846,0.00,0.44,0.88
19855,0.00,0.44,0.89
19865,0.00,0.44,0.89
19875,-0.00,0.43,0.89
19884,-0.01,0.43,0.90
19894,-0.01,0.43,0.90
19903,-0.01,0.44,0.90
19913,-0.01,0.44,0.90
19923,-0.01,0.44,0.90
19932,-0.01,0.44,0.89
19942,-0.00,0.44,0.89
19951,-0.01,0.44,0.89
19961,-0.01,0.44,0.89
19971,-0.01,0.44,0.89
19980,-0.01,0.44,0.89
19990,-0.01,0.44,0.89
20000,-0.01,0.44,0.89
20009,-0.01,0.43,0.90
20019,-0.02,0.43,0.90
20028,-0.02,0.43,0.91
20038,-0.02,0.43,0.91
20048,-0.01,0.43,0.90
20057,0.00,0.44,0.88
20067,0.01,0.45,0.88
20076,0.00,0.45,0.88
20086,-0.00,0.44,0.88
20096,-0.01,0.45,0.89
20105,-0.01,0.44,0.89
20115,-0.01,0.44,0.90
20125,-0.01,0.44,0.89
20134,-0.01,0.44,0.89
20144,-0.01,0.44,0.89
20153,-0.01,0.43,0.89
20163,-0.01,0.43,0.90
20173,-0.01,0.44,0.91
20182,-0.01,0.44,0.90
20192,-0.01,0.44,0.90
20201,-0.01,0.43,0.90
20211,-0.01,0.44,0.89
20221,-0.01,0.44,0.90
20230,-0.00,0.44,0.90
20240,0.00,0.44,0.89
20250,0.01,0.45,0.89
20259,0.01,0.44,0.89
20269,0.02,0.43,0.88
20278,0.02,0.43,0.87
20288,0.02,0.44,0.88
20298,0.01,0.44,0.89
20307,0.01,0.44,0.90
20317,0.01,0.44,0.90
20326,0.01,0.44,0.89
20336,0.01,0.44,0.90
20346,0.01,0.43,0.90
20355,0.01,0.43,0.90
20365,0.00,0.43,0.90
20375,0.00,0.43,0.91
20384,0.00,0.43,0.90
20394,0.01,0.44,0.90
20403,0.01,0.44,0.89
20413,0.01,0.44,0.89
20423,0.01,0.44,0.89
20432,0.01,0.44,0.89
20442,0.01,0.44,0.89
20451,0.01,0.44,0.89
20461,0.01,0.44,0.89
20471,0.01,0.43,0.89
20480,0.00,0.44,0.89
20490,0.01,0.44,0.89
20500,0.01,0.44,0.89
20509,0.00,0.44,0.89
20519,0.00,0.44,0.89
20528,-0.00,0.44,0.89
20538,-0.00,0.44,0.90
20548,-0.00,0.44,0.90
20557,0.00,0.43,0.90
20567,0.00,0.43,0.89
20576,-0.00,0.44,0.90
20586,-0.00,0.43,0.90
20596,-0.01,0.43,0.89
20605,-0.01,0.43,0.90
20615,-0.01,0.44,0.90
20625,-0.01,0.44,0.89
20634,-0.01,0.43,0.88
20644,-0.01,0.44,0.89
20653,-0.01,0.44,0.90
20663,-0.01,0.44,0.89
20673,-0.01,0.43,0.89
20682,-0.00,0.43,0.89
20692,-0.00,0.43,0.89
20701,0.00,0.44,0.89
20711,0.01,0.44,0.89
20721,-0.00,0.45,0.89
20730,-0.00,0.44,0.89
20740,-0.01,0.44,0.90
20750,-0.00,0.43,0.90
20759,-0.01,0.43,0.90
20769,-0.00,0.43,0.90
20778,-0.00,0.43,0.89
20788,-0.00,0.44,0.89
20798,-0.00,0.44,0.89
20807,-0.00,0.44,0.89
20817,-0.01,0.44,0.89
20826,-0.00,0.44,0.89
20836,-0.00,0.44,0.89
20846,-0.00,0.44,0.89
20855,-0.00,0.44,0.89
20865,-0.00,0.44,0.89
20875,-0.01,0.44,0.89
20884,-0.01,0.44,0.90
20894,-0.01,0.44,0.90
20903,-0.02,0.44,0.90
20913,-0.02,0.43,0.90
20923,-0.02,0.43,0.90
20932,-0.01,0.44,0.90
20942,-0.01,0.43,0.89
20951,-0.01,0.43,0.89
20961,-0.02,0.43,0.90
20971,-0.02,0.43,0.90
20980,-0.02,0.43,0.89
20990,-0.02,0.44,0.89
21000,-0.01,0.44,0.89
21009,-0.01,0.44,0.89
21019,-0.01,0.44,0.89
21028,-0.00,0.44,0.89
21038,-0.01,0.44,0.89
21048,-0.01,0.44,0.89
21057,-0.01,0.44,0.89
21067,-0.01,0.44,0.89
21076,-0.01,0.44,0.89
21086,-0.01,0.44,0.90
21096,-0.01,0.43,0.90
21105,-0.01,0.43,0.90
21115,-0.01,0.43,0.90
21125,-0.01,0.44,0.89
21134,-0.01,0.44,0.89
21144,-0.01,0.44,0.89
21153,-0.01,0.44,0.89
21163,-0.01,0.45,0.89
21173,-0.01,0.44,0.89
21182,-0.01,0.44,0.89
21192,-0.01,0.44,0.89
21201,-0.02,0.44,0.89
21211,-0.02,0.44,0.89
21221,-0.01,0.44,0.89
21230,-0.01,0.44,0.89
21240,-0.01,0.44,0.89
21250,-0.01,0.44,0.89
21259,-0.01,0.44,0.89
21269,-0.02,0.43,0.89
21278,-0.02,0.43,0.90
21288,-0.02,0.44,0.90
21298,-0.02,0.44,0.90
21307,-0.02,0.43,0.90
21317,-0.02,0.44,0.90
21326,-0.02,0.43,0.90
21336,-0.02,0.43,0.90
21346,-0.01,0.43,0.89
21355,-0.02,0.43,0.89
21365,-0.02,0.44,0.90
21375,-0.01,0.44,0.89
21384,-0.02,0.44,0.88
21394,-0.02,0.44,0.88
21403,-0.02,0.44,0.89
21413,-0.01,0.44,0.90
21423,-0.01,0.44,0.89
21432,-0.01,0.43,0.89
21442,-0.01,0.43,0.89
21451,-0.01,0.43,0.89
21461,-0.01,0.44,0.89
21471,-0.01,0.44,0.89
21480,-0.01,0.44,0.90
21490,-0.01,0.44,0.90
21500,-0.01,0.43,0.90
21509,-0.01,0.43,0.90
21519,-0.01,0.43,0.90
21528,-0.01,0.43,0.90
21538,-0.01,0.43,0.90
21548,-0.01,0.43,0.89
21557,-0.01,0.43,0.89
21567,-0.01,0.44,0.89
21576,-0.01,0.44,0.89
21586,-0.01,0.44,0.89
21596,-0.01,0.44,0.89
21605,-0.01,0.44,0.89
21615,-0.01,0.44,0.89
21625,-0.01,0.44,0.89
21634,-0.02,0.44,0.89
21644,-0.02,0.44,0.89
21653,-0.01,0.43,0.89
21663,-0.01,0.43,0.89
21673,-0.01,0.43,0.89
21682,-0.01,0.45,0.90
21692,-0.01,0.44,0.89
21701,-0.00,0.43,0.88
21711,-0.01,0.43,0.89
21721,-0.01,0.44,0.89
21730,-0.01,0.44,0.89
21740,-0.02,0.44,0.89
21750,-0.02,0.45,0.89
21759,-0.01,0.44,0.89
21769,-0.01,0.44,0.89
21778,-0.01,0.43,0.90
21788,-0.01,0.43,0.90
21798,-0.01,0.43,0.90
21807,-0.01,0.43,0.90
21817,-0.01,0.44,0.90
21826,-0.01,0.44,0.89
21836,-0.01,0.44,0.89
21846,-0.01,0.44,0.89
21855,-0.01,0.44,0.89
21865,-0.01,0.44,0.89
21875,-0.01,0.44,0.89
21884,-0.01,0.45,0.89
21894,-0.01,0.45,0.89
21903,-0.01,0.45,0.89
21913,-0.01,0.44,0.89
21923,-0.01,0.44,0.89
21932,-0.01,0.44,0.89
21942,-0.01,0.44,0.89
21951,-0.01,0.44,0.89
21961,-0.01,0.44,0.89
21971,-0.01,0.44,0.89
21980,-0.01,0.44,0.89
21990,-0.01,0.44,0.89
22000,-0.01,0.43,0.89
22009,-0.02,0.43,0.89
22019,-0.01,0.44,0.89
22028,-0.01,0.44,0.89
22038,-0.01,0.44,0.89
22048,-0.01,0.44,0.89
22057,-0.01,0.43,0.89
22067,-0.01,0.43,0.89
22076,-0.01,0.44,0.89
22086,-0.01,0.44,0.89
22096,-0.01,0.44,0.89
22105,-0.01,0.44,0.89
22115,-0.01,0.43,0.89
22125,-0.01,0.42,0.89
22134,-0.02,0.43,0.89
22144,-0.01,0.44,0.89
22153,-0.01,0.43,0.88
22163,-0.02,0.43,0.88
22173,-0.02,0.44,0.89
22182,-0.01,0.44,0.89
22192,-0.01,0.43,0.89
22201,-0.01,0.43,0.89
22211,-0.02,0.42,0.89
22221,-0.01,0.42,0.89
22230,-0.01,0.42,0.90
22240,-0.00,0.42,0.91
22250,0.00,0.42,0.91
22259,-0.00,0.42,0.90
22269,-0.00,0.42,0.90
22278,0.00,0.42,0.91
22288,0.00,0.42,0.91
22298,0.00,0.42,0.91
22307,0.00,0.41,0.91
22317,0.00,0.41,0.91
22326,0.00,0.41,0.90
22336,0.01,0.41,0.90
22346,0.01,0.42,0.90
22355,0.01,0.42,0.90
22365,0.00,0.42,0.90
22375,0.00,0.42,0.90
22384,0.00,0.42,0.90
22394,-0.00,0.42,0.90
22403,-0.00,0.42,0.91
22413,-0.01,0.41,0.90
22423,0.00,0.41,0.90
22432,-0.00,0.40,0.91
22442,-0.01,0.41,0.92
22451,-0.01,0.41,0.92
22461,-0.01,0.41,0.91
22471,-0.01,0.41,0.91
22480,-0.01,0.41,0.91
22490,-0.00,0.41,0.91
22500,-0.00,0.41,0.91
22509,-0.00,0.40,0.91
22519,-0.00,0.40,0.90
22528,0.00,0.40,0.90
22538,0.01,0.41,0.90
22548,0.01,0.41,0.90
22557,0.01,0.42,0.91
22567,0.00,0.42,0.91
22576,0.00,0.42,0.91
22586,-0.00,0.41,0.92
22596,0.00,0.41,0.92
22605,0.00,0.40,0.91
22615,-0.00,0.40,0.91
22625,-0.00,0.40,0.91
22634,0.00,0.41,0.91
22644,0.00,0.41,0.90
22653,0.00,0.41,0.90
22663,0.01,0.41,0.90
22673,0.00,0.41,0.90
22682,-0.00,0.41,0.90
22692,-0.00,0.41,0.90
22701,-0.00,0.41,0.91
22711,0.00,0.42,0.91
22721,0.01,0.42,0.90
22730,0.00,0.41,0.90
22740,0.00,0.41,0.91
22750,-0.00,0.41,0.91
22759,-0.00,0.41,0.91
22769,-0.00,0.41,0.91
22778,-0.00,0.41,0.91
22788,-0.00,0.41,0.91
22798,0.00,0.41,0.91
22807,0.00,0.41,0.91
22817,-0.00,0.42,0.91
22826,-0.00,0.41,0.91
22836,-0.01,0.41,0.91
22846,-0.01,0.41,0.91
22855,-0.01,0.41,0.91
22865,-0.01,0.41,0.91
22875,-0.01,0.41,0.91
22884,-0.01,0.41,0.91
22894,-0.00,0.41,0.90
22903,-0.00,0.41,0.90
22913,-0.01,0.41,0.90
22923,-0.01,0.42,0.90
22932,-0.01,0.42,0.90
22942,-0.01,0.42,0.90
22951,-0.01,0.42,0.90
22961,-0.01,0.42,0.91
22971,-0.01,0.42,0.91
22980,-0.01,0.41,0.90
22990,-0.01,0.41,0.91
23000,-0.01,0.41,0.91
23009,-0.01,0.41,0.90
23019,-0.01,0.41,0.90
23028,-0.01,0.41,0.90
23038,-0.01,0.42,0.89
23048,-0.01,0.42,0.89
23057,-0.01,0.42,0.90
23067,-0.01,0.42,0.90
23076,-0.01,0.42,0.90
23086,-0.01,0.42,0.90
23096,-0.01,0.42,0.89
23105,-0.01,0.42,0.90
23115,-0.01,0.42,0.91
23125,-0.01,0.42,0.91
23134,-0.02,0.41,0.91
23144,-0.02,0.40,0.92
23153,-0.02,0.40,0.92
23163,-0.02,0.40,0.91
23173,-0.02,0.41,0.91
23182,-0.02,0.41,0.91
23192,-0.01,0.41,0.91
23201,-0.01,0.41,0.91
23211,-0.01,0.41,0.91
23221,-0.02,0.41,0.91
23230,-0.02,0.40,0.91
23240,-0.02,0.41,0.91
23250,-0.03,0.40,0.91
23259,-0.03,0.41,0.91
23269,-0.03,0.41,0.92
23278,-0.03,0.41,0.92
23288,-0.02,0.41,0.91
23298,-0.02,0.40,0.91
23307,-0.02,0.40,0.91
23317,-0.02,0.40,0.91
23326,-0.02,0.40,0.90
23336,-0.02,0.40,0.91
23346,-0.02,0.40,0.91
23355,-0.02,0.40,0.91
23365,-0.02,0.40,0.91
23375,-0.03,0.40,0.91
23384,-0.03,0.40,0.92
23394,-0.04,0.41,0.92
23403,-0.03,0.41,0.92
23413,-0.03,0.41,0.91
23423,-0.03,0.41,0.91
23432,-0.03,0.41,0.91
23442,-0.02,0.40,0.90
23451,-0.02,0.40,0.90
23461,-0.02,0.40,0.91
23471,-0.02,0.40,0.91
23480,-0.03,0.41,0.91
23490,-0.03,0.41,0.91
23500,-0.03,0.41,0.90
23509,-0.02,0.41,0.90
23519,-0.02,0.41,0.90
23528,-0.02,0.42,0.90
23538,-0.02,0.41,0.90
23548,-0.02,0.41,0.90
23557,-0.03,0.41,0.90
23567,-0.03,0.41,0.90
23576,-0.03,0.41,0.90
23586,-0.03,0.41,0.91
23596,-0.03,0.41,0.91
23605,-0.03,0.41,0.91
23615,-0.03,0.41,0.91
23625,-0.03,0.41,0.91
23634,-0.03,0.40,0.91
23644,-0.03,0.40,0.91
23653,-0.03,0.41,0.91
23663,-0.03,0.41,0.91
23673,-0.03,0.41,0.91
23682,-0.03,0.41,0.91
23692,-0.03,0.41,0.91
23701,-0.03,0.41,0.90
23711,-0.03,0.41,0.90
23721,-0.03,0.41,0.90
23730,-0.03,0.41,0.91
23740,-0.04,0.41,0.91
23750,-0.04,0.41,0.91
23759,-0.04,0.41,0.91
23769,-0.03,0.42,0.91
23778,-0.03,0.41,0.91
23788,-0.03,0.41,0.90
23798,-0.03,0.41,0.91
23807,-0.03,0.40,0.91
23817,-0.03,0.40,0.90
23826,-0.03,0.41,0.91
23836,-0.03,0.41,0.91
23846,-0.04,0.41,0.91
23855,-0.04,0.42,0.91
23865,-0.04,0.42,0.91
23875,-0.04,0.42,0.90
23884,-0.04,0.42,0.90
23894,-0.03,0.41,0.90
23903,-0.03,0.41,0.90
23913,-0.03,0.40,0.90
23923,-0.03,0.41,0.90
23932,-0.03,0.41,0.90
23942,-0.04,0.42,0.90
23951,-0.04,0.42,0.90
23961,-0.04,0.42,0.90
23971,-0.03,0.42,0.90
23980,-0.04,0.42,0.91
23990,-0.04,0.41,0.91
24000,-0.04,0.41,0.91
24009,-0.04,0.41,0.91
24019,-0.04,0.41,0.91
24028,-0.05,0.41,0.91
24038,-0.04,0.41,0.91
24048,-0.04,0.41,0.91
24057,-0.04,0.41,0.90
24067,-0.04,0.41,0.90
24076,-0.04,0.41,0.90
24086,-0.04,0.42,0.90
24096,-0.04,0.42,0.90
24105,-0.04,0.42,0.90
24115,-0.04,0.42,0.90
24125,-0.04,0.42,0.89
24134,-0.04,0.43,0.90
24144,-0.04,0.43,0.90
24153,-0.04,0.42,0.90
24163,-0.04,0.41,0.91
24173,-0.04,0.40,0.91
24182,-0.04,0.40,0.91
24192,-0.04,0.41,0.90
24201,-0.04,0.41,0.90
24211,-0.04,0.42,0.90
24221,-0.04,0.42,0.90
24230,-0.04,0.42,0.90
24240,-0.04,0.42,0.90
24250,-0.04,0.42,0.90
24259,-0.04,0.42,0.91
24269,-0.04,0.42,0.91
24278,-0.04,0.42,0.91
24288,-0.05,0.41,0.91
24298,-0.05,0.41,0.91
24307,-0.05,0.40,0.91
24317,-0.05,0.41,0.91
24326,-0.05,0.41,0.91
24336,-0.04,0.41,0.90
24346,-0.04,0.42,0.90
24355,-0.04,0.42,0.90
24365,-0.04,0.42,0.90
24375,-0.04,0.41,0.90
24384,-0.04,0.41,0.90
24394,-0.05,0.41,0.90
24403,-0.04,0.41,0.90
24413,-0.04,0.42,0.90
24423,-0.04,0.42,0.90
24432,-0.04,0.42,0.90
24442,-0.04,0.42,0.90
24451,-0.04,0.41,0.90
24461,-0.04,0.41,0.91
24471,-0.05,0.41,0.91
24480,-0.05,0.41,0.91
24490,-0.05,0.41,0.91
24500,-0.05,0.41,0.91
24509,-0.05,0.41,0.90
24519,-0.05,0.41,0.90
24528,-0.04,0.41,0.90
24538,-0.05,0.41,0.90
24548,-0.05,0.42,0.90
24557,-0.05,0.42,0.90
24567,-0.05,0.42,0.90
24576,-0.05,0.42,0.90
24586,-0.05,0.42,0.90
24596,-0.04,0.42,0.90
24605,-0.04,0.42,0.90
24615,-0.04,0.41,0.90
24625,-0.04,0.41,0.90
24634,-0.05,0.41,0.91
24644,-0.05,0.41,0.91
24653,-0.05,0.41,0.91
24663,-0.05,0.41,0.90
24673,-0.05,0.42,0.90
24682,-0.04,0.42,0.90
24692,-0.04,0.42,0.90
24701,-0.04,0.42,0.90
24711,-0.04,0.42,0.90
24721,-0.04,0.42,0.90
24730,-0.05,0.42,0.90
24740,-0.05,0.42,0.90
24750,-0.05,0.42,0.90
24759,-0.05,0.42,0.90
24769,-0.05,0.42,0.90
24778,-0.05,0.42,0.90
24788,-0.05,0.42,0.90
24798,-0.04,0.42,0.90
24807,-0.04,0.42,0.90
24817,-0.05,0.41,0.90
24826,-0.05,0.41,0.90
24836,-0.05,0.41,0.91
24846,-0.05,0.42,0.91
24855,-0.05,0.42,0.91
24865,-0.05,0.42,0.91
24875,-0.05,0.41,0.90
24884,-0.05,0.41,0.90
24894,-0.05,0.41,0.90
24903,-0.05,0.41,0.90
24913,-0.05,0.42,0.90
24923,-0.05,0.42,0.90
24932,-0.05,0.42,0.90
24942,-0.05,0.42,0.90
24951,-0.05,0.42,0.90
24961,-0.05,0.42,0.90
24971,-0.05,0.42,0.90
24980,-0.05,0.42,0.90
24990,-0.05,0.42,0.90
25000,-0.05,0.42,0.91
25009,-0.05,0.42,0.91
25019,-0.05,0.41,0.91
25028,-0.05,0.41,0.90
25038,-0.05,0.41,0.90
25048,-0.05,0.41,0.90
25057,-0.05,0.42,0.90
25067,-0.05,0.42,0.90
25076,-0.05,0.42,0.90
25086,-0.05,0.42,0.90
25096,-0.05,0.42,0.90
25105,-0.05,0.42,0.91
25115,-0.05,0.42,0.91
25125,-0.05,0.42,0.91
25134,-0.06,0.41,0.91
25144,-0.05,0.41,0.91
25153,-0.05,0.41,0.91
25163,-0.05,0.41,0.91
25173,-0.06,0.41,0.91
25182,-0.06,0.41,0.91
25192,-0.06,0.42,0.91
25201,-0.05,0.42,0.90
25211,-0.05,0.42,0.90
25221,-0.05,0.42,0.89
25230,-0.05,0.42,0.89
25240,-0.04,0.42,0.89
25250,-0.04,0.42,0.90
25259,-0.05,0.42,0.90
25269,-0.05,0.42,0.90
25278,-0.05,0.42,0.90
25288,-0.05,0.42,0.90
25298,-0.05,0.42,0.91
25307,-0.05,0.42,0.90
25317,-0.05,0.41,0.90
25326,-0.05,0.41,0.90
25336,-0.05,0.41,0.91
25346,-0.05,0.42,0.91
25355,-0.05,0.42,0.90
25365,-0.05,0.42,0.90
25375,-0.05,0.41,0.90
25384,-0.05,0.42,0.90
25394,-0.05,0.42,0.90
25403,-0.05,0.42,0.90
25413,-0.05,0.42,0.90
25423,-0.05,0.42,0.90
25432,-0.05,0.42,0.91
25442,-0.05,0.42,0.90
25451,-0.05,0.41,0.90
25461,-0.05,0.41,0.91
25471,-0.05,0.41,0.91
25480,-0.05,0.41,0.91
25490,-0.05,0.42,0.91
25500,-0.05,0.42,0.90
25509,-0.05,0.43,0.90
25519,-0.05,0.43,0.90
25528,-0.05,0.42,0.90
25538,-0.05,0.42,0.90
25548,-0.06,0.42,0.90
25557,-0.05,0.42,0.90
25567,-0.05,0.42,0.90
25576,-0.04,0.43,0.90
25586,-0.04,0.42,0.90
25596,-0.04,0.42,0.91
25605,-0.05,0.41,0.91
25615,-0.05,0.41,0.91
25625,-0.06,0.42,0.91
25634,-0.05,0.42,0.92
25644,-0.05,0.42,0.92
25653,-0.05,0.42,0.91
25663,-0.05,0.42,0.91
25673,-0.04,0.41,0.91
25682,-0.04,0.41,0.90
25692,-0.04,0.41,0.90
25701,-0.04,0.42,0.90
25711,-0.04,0.42,0.89
25721,-0.04,0.43,0.89
25730,-0.03,0.44,0.89
25740,-0.03,0.44,0.89
25750,-0.03,0.44,0.89
25759,-0.03,0.44,0.89
25769,-0.03,0.44,0.88
25778,-0.03,0.43,0.89
25788,-0.03,0.43,0.89
25798,-0.03,0.43,0.89
25807,-0.04,0.43,0.90
25817,-0.04,0.43,0.91
25826,-0.04,0.43,0.91
25836,-0.04,0.42,0.91
25846,-0.03,0.42,0.90
25855,-0.03,0.42,0.90
25865,-0.03,0.42,0.90
25875,-0.03,0.42,0.90
25884,-0.03,0.42,0.90
25894,-0.02,0.43,0.90
25903,-0.02,0.43,0.90
25913,-0.03,0.43,0.90
25923,-0.03,0.43,0.90
25932,-0.03,0.43,0.90
25942,-0.03,0.42,0.90
25951,-0.03,0.43,0.90
25961,-0.03,0.42,0.90
25971,-0.03,0.42,0.91
25980,-0.03,0.43,0.91
25990,-0.03,0.43,0.90
26000,-0.03,0.43,0.90
26009,-0.02,0.43,0.90
26019,-0.02,0.43,0.89
26028,-0.02,0.43,0.89
26038,-0.02,0.43,0.89
26048,-0.02,0.43,0.89
26057,-0.02,0.43,0.89
26067,-0.02,0.43,0.90
26076,-0.02,0.43,0.89
26086,-0.02,0.44,0.90
26096,-0.02,0.44,0.90
26105,-0.01,0.43,0.90
26115,-0.02,0.42,0.90
26125,-0.02,0.42,0.91
26134,-0.02,0.42,0.91
26144,-0.02,0.41,0.91
26153,-0.02,0.42,0.91
26163,-0.02,0.42,0.90
26173,-0.02,0.42,0.90
26182,-0.01,0.43,0.90
26192,-0.01,0.43,0.89
26201,-0.01,0.43,0.89
26211,-0.00,0.43,0.89
26221,0.00,0.43,0.89
26230,-0.00,0.42,0.89
26240,-0.01,0.42,0.89
26250,-0.01,0.43,0.89
26259,-0.00,0.43,0.89
26269,-0.00,0.43,0.89
26278,-0.00,0.43,0.89
26288,-0.00,0.43,0.89
26298,-0.00,0.43,0.90
26307,-0.01,0.42,0.90
26317,-0.01,0.42,0.90
26326,-0.01,0.43,0.91
26336,-0.01,0.42,0.90
26346,-0.00,0.42,0.90
26355,-0.00,0.42,0.90
26365,-0.01,0.42,0.90
26375,-0.00,0.42,0.90
26384,0.00,0.42,0.89
26394,-0.00,0.42,0.90
26403,-0.00,0.42,0.90
26413,-0.00,0.43,0.91
26423,-0.01,0.43,0.91
26432,-0.00,0.43,0.90
26442,0.00,0.43,0.90
26451,0.00,0.43,0.90
26461,-0.00,0.42,0.90
26471,-0.00,0.42,0.90
26480,0.00,0.42,0.90
26490,0.00,0.42,0.89
26500,0.00,0.42,0.90
26509,0.00,0.42,0.89
26519,0.00,0.43,0.89
26528,0.00,0.43,0.90
26538,-0.00,0.43,0.90
26548,-0.00,0.43,0.90
26557,0.00,0.43,0.90
26567,0.00,0.43,0.90
26576,0.01,0.43,0.90
26586,0.01,0.42,0.89
26596,0.00,0.42,0.90
26605,0.00,0.43,0.91
26615,0.00,0.42,0.90
26625,0.01,0.42,0.90
26634,0.01,0.42,0.90
26644,0.00,0.42,0.90
26653,0.00,0.42,0.90
26663,0.00,0.42,0.90
26673,0.00,0.42,0.90
26682,0.00,0.42,0.90
26692,0.00,0.43,0.90
26701,-0.00,0.43,0.90
26711,-0.01,0.43,0.90
26721,-0.01,0.43,0.90
26730,-0.01,0.43,0.90
26740,-0.01,0.43,0.90
26750,0.00,0.43,0.90
26759,0.01,0.43,0.90
26769,0.01,0.43,0.89
26778,0.02,0.42,0.89
26788,0.02,0.42,0.89
26798,0.02,0.42,0.90
26807,0.01,0.44,0.89
26817,0.02,0.44,0.88
26826,0.03,0.44,0.88
26836,0.02,0.44,0.89
26846,0.02,0.43,0.89
26855,0.01,0.43,0.90
26865,0.01,0.43,0.90
26875,0.01,0.43,0.90
26884,0.01,0.43,0.90
26894,0.00,0.43,0.90
26903,-0.00,0.43,0.90
26913,0.00,0.42,0.90
26923,-0.00,0.42,0.90
26932,-0.00,0.42,0.89
26942,0.00,0.43,0.89
26951,-0.00,0.43,0.89
26961,-0.00,0.44,0.89
26971,-0.00,0.43,0.90
26980,-0.01,0.43,0.90
26990,-0.01,0.43,0.90
27000,-0.01,0.43,0.89
27009,-0.01,0.42,0.89
27019,-0.02,0.43,0.89
27028,-0.02,0.44,0.90
27038,-0.01,0.43,0.90
27048,-0.02,0.43,0.89
27057,-0.01,0.43,0.89
27067,-0.01,0.43,0.90
27076,-0.01,0.42,0.89
27086,-0.00,0.43,0.89
27096,-0.01,0.43,0.90
27105,-0.01,0.43,0.90
27115,-0.00,0.43,0.90
27125,-0.01,0.43,0.90
27134,-0.01,0.43,0.90
27144,-0.01,0.43,0.90
27153,-0.00,0.43,0.90
27163,-0.01,0.43,0.90
27173,-0.01,0.43,0.90
27182,-0.00,0.43,0.90
27192,-0.00,0.43,0.90
27201,-0.00,0.43,0.90
27211,-0.00,0.43,0.90
27221,-0.00,0.43,0.89
27230,-0.00,0.44,0.89
27240,0.00,0.44,0.89
27250,-0.00,0.44,0.89
27259,-0.01,0.44,0.89
27269,-0.01,0.43,0.90
27278,-0.00,0.43,0.89
27288,0.00,0.44,0.89
27298,0.00,0.44,0.89
27307,0.00,0.44,0.89
27317,0.00,0.43,0.88
27326,-0.01,0.43,0.89
27336,-0.01,0.44,0.90
27346,-0.01,0.45,0.90
27355,-0.00,0.45,0.89
27365,0.01,0.44,0.89
27375,0.01,0.43,0.88
27384,0.00,0.43,0.89
27394,0.01,0.43,0.89
27403,0.01,0.44,0.89
27413,0.01,0.44,0.89
27423,0.00,0.44,0.90
27432,-0.00,0.43,0.90
27442,-0.00,0.43,0.90
27451,-0.00,0.43,0.90
27461,-0.00,0.43,0.90
27471,-0.01,0.43,0.90
27480,-0.01,0.43,0.90
27490,-0.01,0.43,0.89
27500,-0.00,0.43,0.89
27509,-0.00,0.44,0.89
27519,0.00,0.44,0.89
27528,0.00,0.43,0.88
27538,-0.01,0.44,0.89
27548,-0.01,0.44,0.89
27557,-0.01,0.44,0.89
27567,-0.01,0.44,0.88
27576,-0.01,0.43,0.89
27586,-0.01,0.43,0.89
27596,-0.01,0.43,0.89
27605,-0.01,0.43,0.89
27615,-0.01,0.43,0.89
27625,-0.01,0.44,0.89
27634,-0.00,0.44,0.89
27644,-0.01,0.43,0.89
27653,-0.01,0.43,0.90
27663,-0.01,0.42,0.90
27673,-0.01,0.42,0.90
27682,-0.00,0.43,0.91
27692,-0.00,0.43,0.91
27701,-0.01,0.43,0.90
27711,-0.01,0.43,0.90
27721,0.00,0.42,0.89
27730,0.00,0.42,0.88
27740,-0.00,0.42,0.89
27750,-0.00,0.44,0.89
27759,-0.00,0.43,0.89
27769,-0.00,0.43,0.88
27778,-0.01,0.43,0.89
27788,-0.01,0.44,0.90
27798,-0.01,0.43,0.90
27807,-0.00,0.43,0.90
27817,-0.00,0.42,0.89
27826,-0.00,0.42,0.90
27836,-0.00,0.42,0.90
27846,-0.00,0.42,0.90
27855,-0.01,0.42,0.90
27865,-0.01,0.42,0.90
27875,-0.01,0.42,0.91
27884,-0.01,0.42,0.91
27894,-0.01,0.43,0.90
27903,-0.00,0.42,0.90
27913,0.00,0.43,0.89
27923,0.00,0.43,0.89
27932,-0.00,0.43,0.89
27942,0.00,0.43,0.89
27951,-0.00,0.43,0.90
27961,-0.01,0.43,0.89
27971,-0.00,0.43,0.88
27980,0.00,0.43,0.89
27990,-0.00,0.43,0.90
28000,-0.00,0.43,0.90
28009,-0.00,0.42,0.90
28019,-0.01,0.42,0.90
28028,-0.00,0.42,0.90
28038,0.00,0.41,0.90
28048,-0.00,0.41,0.91
28057,-0.01,0.42,0.92
28067,-0.01,0.43,0.91
28076,0.00,0.42,0.90
28086,0.00,0.42,0.89
28096,-0.00,0.43,0.89
28105,-0.01,0.43,0.89
28115,-0.00,0.43,0.89
28125,-0.00,0.44,0.89
28134,-0.00,0.44,0.89
28144,-0.00,0.44,0.89
28153,-0.00,0.43,0.89
28163,-0.00,0.43,0.89
28173,-0.01,0.43,0.89
28182,-0.01,0.43,0.90
28192,-0.01,0.42,0.90
28201,-0.01,0.42,0.90
28211,-0.00,0.42,0.90
28221,-0.00,0.42,0.89
28230,-0.00,0.42,0.89
28240,-0.00,0.43,0.89
28250,0.00,0.43,0.89
28259,0.00,0.43,0.89
28269,0.00,0.43,0.89
28278,-0.00,0.43,0.89
28288,-0.00,0.42,0.89
28298,-0.00,0.42,0.89
28307,-0.00,0.42,0.89
28317,-0.00,0.42,0.89
28326,-0.00,0.42,0.89
28336,0.00,0.42,0.89
28346,0.00,0.42,0.90
28355,0.00,0.42,0.90
28365,0.00,0.42,0.90
28375,-0.00,0.42,0.90
28384,0.00,0.42,0.90
28394,0.00,0.42,0.89
28403,0.00,0.41,0.89
28413,0.01,0.41,0.90
28423,0.00,0.41,0.90
28432,0.00,0.41,0.89
28442,0.00,0.42,0.90
28451,-0.00,0.41,0.90
28461,0.00,0.41,0.90
28471,0.01,0.40,0.90
28480,0.01,0.40,0.89
28490,0.00,0.42,0.90
28500,0.00,0.42,0.92
28509,0.00,0.41,0.92
28519,-0.00,0.41,0.91
28528,-0.00,0.40,0.91
28538,0.01,0.41,0.91
28548,0.02,0.42,0.91
28557,0.03,0.42,0.90
28567,0.03,0.42,0.89
28576,0.02,0.41,0.89
28586,0.02,0.41,0.89
28596,0.02,0.41,0.90
28605,0.02,0.41,0.90
28615,0.02,0.40,0.90
28625,0.02,0.41,0.90
28634,0.02,0.41,0.90
28644,0.02,0.41,0.91
28653,0.02,0.41,0.91
28663,0.02,0.41,0.91
28673,0.02,0.41,0.91
28682,0.01,0.41,0.91
28692,0.01,0.40,0.91
28701,0.01,0.40,0.91
28711,0.01,0.40,0.91
28721,0.01,0.39,0.91
28730,0.01,0.40,0.90
28740,0.01,0.40,0.91
28750,0.01,0.41,0.91
28759,0.01,0.41,0.91
28769,0.01,0.41,0.91
28778,0.01,0.41,0.90
28788,0.02,0.40,0.91
28798,0.02,0.40,0.91
28807,0.02,0.40,0.91
28817,0.02,0.39,0.90
28826,0.02,0.39,0.90
28836,0.01,0.39,0.90
28846,0.01,0.40,0.91
28855,0.00,0.40,0.91
28865,0.00,0.40,0.91
28875,0.00,0.40,0.91
28884,0.01,0.40,0.91
28894,0.01,0.40,0.91
28903,0.01,0.40,0.91
28913,0.01,0.39,0.92
28923,0.00,0.39,0.92
28932,-0.00,0.39,0.92
28942,-0.01,0.39,0.92
28951,-0.01,0.40,0.92
28961,-0.00,0.40,0.92
28971,0.00,0.40,0.91
28980,0.01,0.40,0.91
28990,0.01,0.39,0.90
29000,0.01,0.39,0.91
29009,0.00,0.39,0.92
29019,0.00,0.40,0.91
29028,-0.00,0.40,0.91
29038,-0.00,0.41,0.90
29048,0.00,0.41,0.90
29057,0.01,0.42,0.90
29067,0.01,0.42,0.90
29076,0.01,0.41,0.90
29086,0.00,0.41,0.90
29096,-0.00,0.41,0.91
29105,-0.01,0.41,0.91
29115,-0.01,0.40,0.91
29125,-0.01,0.40,0.91
29134,-0.01,0.40,0.92
29144,-0.01,0.40,0.91
29153,-0.01,0.40,0.91
29163,-0.01,0.40,0.91
29173,-0.00,0.40,0.91
29182,-0.01,0.39,0.91
29192,-0.01,0.40,0.91
29201,-0.01,0.40,0.92
29211,-0.01,0.40,0.92
29221,-0.01,0.39,0.92
29230,-0.01,0.39,0.92
29240,-0.01,0.39,0.91
29250,-0.01,0.40,0.91
29259,-0.01,0.40,0.91
29269,-0.01,0.40,0.90
29278,-0.01,0.40,0.90
29288,-0.01,0.41,0.90
29298,-0.01,0.40,0.90
29307,-0.01,0.40,0.90
29317,-0.02,0.40,0.91
29326,-0.02,0.40,0.92
29336,-0.02,0.39,0.92
29346,-0.03,0.39,0.92
29355,-0.02,0.40,0.92
29365,-0.02,0.40,0.91
29375,-0.01,0.40,0.91
29384,-0.01,0.40,0.90
29394,-0.01,0.40,0.90
29403,-0.01,0.40,0.90
29413,-0.01,0.40,0.90
29423,-0.01,0.40,0.91
29432,-0.02,0.40,0.91
29442,-0.01,0.40,0.91
29451,-0.01,0.41,0.91
29461,-0.01,0.41,0.91
29471,-0.01,0.41,0.91
29480,-0.02,0.40,0.91
29490,-0.02,0.40,0.91
29500,-0.02,0.39,0.92
29509,-0.02,0.39,0.91
29519,-0.02,0.40,0.91
29528,-0.02,0.40,0.91
29538,-0.02,0.40,0.90
29548,-0.02,0.40,0.90
29557,-0.02,0.40,0.90
29567,-0.03,0.41,0.90
29576,-0.02,0.41,0.90
29586,-0.02,0.41,0.90
29596,-0.02,0.40,0.90
29605,-0.02,0.40,0.90
29615,-0.02,0.40,0.90
29625,-0.02,0.40,0.91
29634,-0.02,0.40,0.91
29644,-0.03,0.40,0.91
29653,-0.03,0.39,0.91
29663,-0.03,0.39,0.91
29673,-0.03,0.39,0.91
29682,-0.03,0.39,0.91
29692,-0.03,0.39,0.91
29701,-0.03,0.39,0.91
29711,-0.03,0.39,0.91
29721,-0.03,0.38,0.91
29730,-0.03,0.38,0.92
29740,-0.04,0.38,0.92
29750,-0.04,0.38,0.92
29759,-0.04,0.38,0.92
29769,-0.04,0.39,0.92
29778,-0.04,0.39,0.92
29788,-0.04,0.39,0.92
29798,-0.03,0.38,0.92
29807,-0.03,0.38,0.93
29817,-0.03,0.37,0.92
29826,-0.04,0.37,0.92
29836,-0.04,0.37,0.92
29846,-0.04,0.37,0.92
29855,-0.04,0.38,0.92
29865,-0.04,0.38,0.92
29875,-0.03,0.38,0.92
29884,-0.04,0.38,0.92
29894,-0.04,0.38,0.92
29903,-0.04,0.38,0.92
29913,-0.04,0.38,0.92
29923,-0.04,0.38,0.92
29932,-0.04,0.38,0.91
29942,-0.04,0.38,0.91
29951,-0.04,0.38,0.91
29961,-0.04,0.38,0.91
29971,-0.04,0.38,0.92
29980,-0.05,0.38,0.92
29990,-0.05,0.38,0.92
30000,-0.04,0.38,0.92
30009,-0.04,0.38,0.92
30019,-0.04,0.38,0.92
30028,-0.04,0.38,0.92
30038,-0.03,0.38,0.91
30048,-0.03,0.38,0.92
30057,-0.03,0.38,0.92
30067,-0.04,0.38,0.92
30076,-0.04,0.38,0.92
30086,-0.04,0.38,0.92
30096,-0.04,0.37,0.92
30105,-0.04,0.37,0.92
30115,-0.04,0.37,0.92
30125,-0.04,0.38,0.92
30134,-0.05,0.38,0.92
30144,-0.05,0.38,0.92
30153,-0.04,0.38,0.91
30163,-0.04,0.38,0.91
30173,-0.04,0.38,0.92
30182,-0.04,0.38,0.92
30192,-0.04,0.37,0.91
30201,-0.04,0.38,0.92
30211,-0.05,0.38,0.92
30221,-0.05,0.38,0.92
30230,-0.05,0.38,0.92
30240,-0.05,0.38,0.92
30250,-0.04,0.38,0.92
30259,-0.04,0.38,0.92
30269,-0.05,0.37,0.92
30278,-0.05,0.37,0.92
30288,-0.05,0.38,0.92
30298,-0.05,0.38,0.92
30307,-0.05,0.38,0.92
30317,-0.05,0.38,0.92
30326,-0.05,0.38,0.92
30336,-0.05,0.38,0.93
30346,-0.05,0.38,0.93
30355,-0.05,0.38,0.92
30365,-0.05,0.38,0.92
30375,-0.05,0.38,0.92
30384,-0.05,0.38,0.91
30394,-0.05,0.38,0.91
30403,-0.05,0.38,0.91
30413,-0.05,0.39,0.91
30423,-0.05,0.39,0.91
30432,-0.05,0.39,0.91
30442,-0.05,0.40,0.91
30451,-0.05,0.40,0.91
30461,-0.05,0.39,0.91
30471,-0.05,0.39,0.91
30480,-0.05,0.39,0.91
30490,-0.05,0.39,0.91
30500,-0.05,0.39,0.91
30509,-0.04,0.39,0.91
30519,-0.04,0.38,0.91
30528,-0.05,0.38,0.92
30538,-0.05,0.38,0.92
30548,-0.05,0.38,0.92
30557,-0.05,0.38,0.92
30567,-0.05,0.39,0.91
30576,-0.05,0.39,0.91
30586,-0.05,0.39,0.91
30596,-0.05,0.39,0.91
30605,-0.06,0.39,0.92
30615,-0.06,0.40,0.92
30625,-0.06,0.39,0.92
30634,-0.06,0.39,0.92
30644,-0.05,0.38,0.92
30653,-0.05,0.38,0.92
30663,-0.05,0.38,0.91
30673,-0.06,0.38,0.91
30682,-0.06,0.39,0.91
30692,-0.05,0.39,0.91
30701,-0.05,0.40,0.91
30711,-0.05,0.40,0.91
30721,-0.05,0.40,0.91
30730,-0.05,0.39,0.91
30740,-0.05,0.39,0.91
30750,-0.05,0.39,0.91
30759,-0.05,0.39,0.91
30769,-0.05,0.40,0.91
30778,-0.05,0.40,0.91
30788,-0.05,0.40,0.91
30798,-0.05,0.39,0.91
30807,-0.06,0.39,0.91
30817,-0.06,0.39,0.91
30826,-0.05,0.39,0.91
30836,-0.05,0.39,0.91
30846,-0.05,0.39,0.91
30855,-0.05,0.39,0.91
30865,-0.05,0.40,0.91
30875,-0.05,0.39,0.91
30884,-0.05,0.39,0.91
30894,-0.05,0.39,0.91
30903,-0.06,0.39,0.92
30913,-0.06,0.39,0.92
30923,-0.06,0.39,0.91
30932,-0.06,0.39,0.91
30942,-0.06,0.40,0.91
30951,-0.06,0.40,0.91
30961,-0.06,0.40,0.91
30971,-0.06,0.40,0.91
30980,-0.06,0.40,0.91
30990,-0.05,0.39,0.91
31000,-0.05,0.38,0.91
31009,-0.05,0.38,0.91
31019,-0.06,0.39,0.91
31028,-0.06,0.40,0.91
31038,-0.06,0.40,0.91
31048,-0.06,0.41,0.91
31057,-0.06,0.41,0.91
31067,-0.06,0.40,0.91
31076,-0.06,0.39,0.91
31086,-0.05,0.39,0.91
31096,-0.06,0.39,0.91
31105,-0.06,0.39,0.91
31115,-0.06,0.39,0.91
31125,-0.06,0.40,0.91
31134,-0.06,0.40,0.91
31144,-0.06,0.40,0.92
31153,-0.06,0.40,0.92
31163,-0.06,0.40,0.92
31173,-0.06,0.40,0.92
31182,-0.06,0.39,0.92
31192,-0.06,0.39,0.92
31201,-0.06,0.38,0.91
31211,-0.06,0.38,0.91
31221,-0.06,0.39,0.91
31230,-0.06,0.39,0.91
31240,-0.06,0.40,0.91
31250,-0.06,0.41,0.91
31259,-0.05,0.41,0.91
31269,-0.05,0.41,0.91
31278,-0.05,0.41,0.91
31288,-0.05,0.40,0.91
31298,-0.05,0.40,0.92
31307,-0.05,0.39,0.92
31317,-0.06,0.39,0.92
31326,-0.06,0.39,0.92
31336,-0.06,0.40,0.92
31346,-0.06,0.39,0.92
31355,-0.05,0.39,0.91
31365,-0.05,0.39,0.91
31375,-0.05,0.39,0.91
31384,-0.04,0.39,0.91
31394,-0.04,0.39,0.91
31403,-0.04,0.39,0.91
31413,-0.05,0.39,0.91
31423,-0.06,0.39,0.91
31432,-0.06,0.39,0.92
31442,-0.06,0.39,0.92
31451,-0.06,0.40,0.92
31461,-0.06,0.40,0.92
31471,-0.06,0.40,0.92
31480,-0.05,0.40,0.92
31490,-0.05,0.39,0.92
31500,-0.05,0.39,0.91
31509,-0.05,0.39,0.91
31519,-0.05,0.39,0.91
31528,-0.05,0.39,0.91
31538,-0.05,0.39,0.91
31548,-0.04,0.39,0.91
31557,-0.04,0.39,0.91
31567,-0.04,0.39,0.91
31576,-0.04,0.40,0.91
31586,-0.04,0.40,0.91
31596,-0.04,0.40,0.91
31605,-0.04,0.40,0.91
31615,-0.04,0.40,0.91
31625,-0.04,0.40,0.91
31634,-0.04,0.40,0.91
31644,-0.04,0.40,0.91
31653,-0.04,0.40,0.91
31663,-0.04,0.40,0.91
31673,-0.04,0.39,0.91
31682,-0.04,0.39,0.91
31692,-0.04,0.39,0.91
31701,-0.04,0.39,0.91
31711,-0.04,0.39,0.91
31721,-0.04,0.40,0.91
31730,-0.03,0.40,0.91
31740,-0.03,0.40,0.91
31750,-0.03,0.40,0.91
31759,-0.03,0.40,0.91
31769,-0.03,0.39,0.91
31778,-0.03,0.40,0.91
31788,-0.03,0.40,0.91
31798,-0.03,0.40,0.91
31807,-0.03,0.40,0.91
31817,-0.03,0.40,0.91
31826,-0.03,0.39,0.91
31836,-0.03,0.40,0.93
31846,-0.03,0.39,0.93
31855,-0.03,0.38,0.92
31865,-0.03,0.38,0.92
31875,-0.03,0.38,0.93
31884,-0.02,0.38,0.92
31894,-0.03,0.38,0.92
31903,-0.02,0.39,0.92
31913,-0.02,0.39,0.91
31923,-0.03,0.39,0.91
31932,-0.03,0.39,0.91
31942,-0.03,0.40,0.90
31951,-0.03,0.40,0.91
31961,-0.03,0.40,0.90
31971,-0.03,0.40,0.91
31980,-0.03,0.40,0.91
31990,-0.02,0.39,0.91
32000,-0.02,0.39,0.91
32009,-0.02,0.39,0.91
32019,-0.02,0.39,0.91
32028,-0.02,0.39,0.91
32038,-0.02,0.39,0.91
32048,-0.02,0.40,0.91
32057,-0.03,0.40,0.91
32067,-0.03,0.40,0.92
32076,-0.03,0.40,0.92
32086,-0.03,0.40,0.92
32096,-0.02,0.40,0.91
32105,-0.02,0.40,0.91
32115,-0.01,0.40,0.91
32125,-0.01,0.39,0.91
32134,-0.02,0.39,0.90
32144,-0.02,0.40,0.91
32153,-0.02,0.41,0.91
32163,-0.01,0.41,0.91
32173,-0.01,0.41,0.91
32182,-0.01,0.41,0.91
32192,-0.01,0.40,0.91
32201,-0.01,0.39,0.91
32211,-0.01,0.38,0.92
32221,-0.01,0.38,0.92
32230,-0.01,0.37,0.92
32240,-0.01,0.37,0.92
32250,-0.01,0.38,0.93
32259,-0.01,0.38,0.92
32269,-0.01,0.38,0.92
32278,-0.00,0.39,0.92
32288,0.00,0.39,0.92
32298,0.00,0.39,0.91
32307,0.00,0.39,0.91
32317,0.00,0.39,0.91
32326,-0.00,0.39,0.91
32336,-0.00,0.39,0.91
32346,-0.01,0.39,0.91
32355,-0.01,0.39,0.91
32365,-0.01,0.39,0.91
32375,-0.01,0.39,0.91
32384,-0.01,0.39,0.92
32394,-0.01,0.39,0.92
32403,-0.01,0.38,0.92
32413,-0.01,0.38,0.91
32423,-0.01,0.39,0.91
32432,-0.01,0.39,0.91
32442,-0.00,0.39,0.91
32451,-0.00,0.39,0.91
32461,-0.00,0.39,0.91
32471,-0.00,0.39,0.92
32480,-0.00,0.39,0.92
32490,0.00,0.38,0.91
32500,-0.00,0.38,0.91
32509,-0.00,0.38,0.91
32519,-0.00,0.38,0.92
32528,-0.00,0.38,0.92
32538,-0.00,0.38,0.92
32548,-0.00,0.38,0.92
32557,-0.01,0.38,0.92
32567,-0.00,0.38,0.92
32576,-0.00,0.38,0.91
32586,-0.00,0.38,0.91
32596,-0.01,0.39,0.92
32605,-0.01,0.39,0.93
32615,-0.02,0.38,0.92
32625,-0.02,0.37,0.92
32634,-0.00,0.38,0.91
32644,0.01,0.39,0.91
32653,0.01,0.39,0.91
32663,0.01,0.39,0.92
32673,0.00,0.38,0.91
32682,0.00,0.38,0.91
32692,0.00,0.38,0.91
32701,0.00,0.39,0.92
32711,0.00,0.39,0.92
32721,0.00,0.38,0.92
32730,-0.00,0.38,0.92
32740,-0.00,0.38,0.93
32750,-0.00,0.38,0.92
32759,0.00,0.39,0.92
32769,0.00,0.39,0.92
32778,-0.00,0.39,0.92
32788,-0.00,0.39,0.92
32798,-0.00,0.39,0.92
32807,-0.00,0.39,0.91
32817,-0.00,0.39,0.91
32826,-0.00,0.39,0.91
32836,-0.00,0.39,0.91
32846,-0.00,0.39,0.91
32855,-0.00,0.39,0.91
32865,-0.01,0.40,0.91
32875,-0.00,0.40,0.92
32884,-0.00,0.39,0.92
32894,-0.00,0.38,0.91
32903,-0.01,0.39,0.92
32913,-0.01,0.39,0.93
32923,-0.01,0.39,0.92
32932,-0.01,0.39,0.92
32942,-0.01,0.38,0.91
32951,-0.01,0.39,0.92
32961,-0.01,0.39,0.92
32971,-0.00,0.40,0.91
32980,-0.00,0.39,0.91
32990,-0.00,0.39,0.91
33000,-0.01,0.39,0.91
33009,-0.01,0.39,0.91
33019,-0.01,0.39,0.91
33028,-0.01,0.39,0.92
33038,-0.01,0.39,0.92
33048,-0.01,0.39,0.92
33057,-0.01,0.39,0.91
33067,-0.01,0.39,0.91
33076,-0.00,0.39,0.91
33086,-0.00,0.39,0.91
33096,-0.00,0.39,0.91
33105,-0.00,0.40,0.91
33115,-0.00,0.40,0.91
33125,-0.00,0.39,0.91
33134,-0.00,0.39,0.92
33144,-0.00,0.39,0.91
33153,-0.00,0.39,0.91
33163,0.00,0.39,0.91
33173,0.00,0.39,0.91
33182,0.00,0.39,0.91
33192,0.00,0.39,0.91
33201,-0.00,0.39,0.91
33211,-0.00,0.39,0.91
33221,-0.00,0.39,0.92
33230,-0.00,0.39,0.92
33240,-0.00,0.39,0.92
33250,-0.01,0.38,0.92
33259,-0.01,0.38,0.92
33269,-0.00,0.38,0.92
33278,-0.00,0.38,0.92
33288,0.00,0.38,0.91
33298,0.00,0.39,0.91
33307,-0.00,0.39,0.92
33317,-0.01,0.39,0.92
33326,-0.00,0.39,0.91
33336,-0.01,0.39,0.91
33346,-0.01,0.39,0.92
33355,-0.01,0.39,0.92
33365,-0.01,0.38,0.91
33375,-0.01,0.38,0.91
33384,-0.01,0.39,0.92
33394,-0.01,0.39,0.92
33403,-0.01,0.39,0.92
33413,-0.00,0.39,0.91
33423,0.00,0.38,0.91
33432,0.00,0.38,0.91
33442,0.00,0.38,0.92
33451,-0.00,0.38,0.92
33461,-0.01,0.38,0.92
33471,-0.01,0.39,0.92
33480,-0.01,0.39,0.92
33490,-0.01,0.39,0.93
33500,-0.01,0.38,0.92
33509,-0.01,0.38,0.92
33519,-0.00,0.38,0.92
33528,0.00,0.39,0.91
33538,0.00,0.39,0.91
33548,0.00,0.39,0.90
33557,0.00,0.40,0.90
33567,0.01,0.40,0.90
33576,0.00,0.40,0.91
33586,-0.00,0.39,0.91
33596,-0.00,0.39,0.92
33605,-0.01,0.39,0.92
33615,-0.01,0.39,0.92
33625,-0.00,0.39,0.92
33634,-0.00,0.38,0.91
33644,-0.00,0.38,0.91
33653,-0.00,0.39,0.93
33663,-0.00,0.39,0.93
33673,-0.00,0.38,0.92
33682,0.00,0.38,0.91
33692,-0.00,0.38,0.92
33701,-0.00,0.39,0.92
33711,-0.00,0.39,0.91
33721,0.00,0.39,0.91
33730,-0.00,0.39,0.91
33740,-0.00,0.39,0.91
33750,-0.00,0.38,0.91
33759,-0.00,0.38,0.92
33769,-0.00,0.38,0.92
33778,-0.00,0.38,0.92
33788,-0.00,0.38,0.92
33798,-0.00,0.39,0.92
33807,-0.00,0.39,0.92
33817,-0.00,0.39,0.92
33826,-0.00,0.39,0.92
33836,0.00,0.38,0.92
33846,0.00,0.38,0.91
33855,0.01,0.38,0.91
33865,0.00,0.38,0.91
33875,0.01,0.38,0.91
33884,0.01,0.39,0.91
33894,0.01,0.39,0.91
33903,0.01,0.39,0.91
33913,0.01,0.39,0.91
33923,0.01,0.39,0.91
33932,0.01,0.39,0.91
33942,0.01,0.39,0.92
33951,0.01,0.38,0.92
33961,0.01,0.38,0.92
33971,0.00,0.37,0.92
33980,0.00,0.37,0.92
33990,0.00,0.37,0.93
34000,0.00,0.37,0.92
34009,0.00,0.38,0.92
34019,0.01,0.38,0.92
34028,0.01,0.38,0.92
34038,0.01,0.38,0.92
34048,0.01,0.38,0.92
34057,0.01,0.38,0.92
34067,0.01,0.38,0.92
34076,0.00,0.38,0.92
34086,0.00,0.38,0.92
34096,0.00,0.37,0.91
34105,0.00,0.37,0.92
34115,0.00,0.38,0.93
34125,0.00,0.38,0.92
34134,0.00,0.37,0.92
34144,-0.00,0.37,0.92
34153,-0.00,0.37,0.93
34163,-0.00,0.37,0.93
34173,-0.00,0.37,0.93
34182,0.00,0.37,0.92
34192,0.00,0.37,0.92
34201,0.00,0.37,0.92
34211,0.01,0.38,0.92
34221,0.01,0.38,0.92
34230,0.00,0.38,0.92
34240,0.00,0.37,0.92
34250,-0.00,0.37,0.92
34259,-0.00,0.37,0.92
34269,-0.00,0.37,0.92
34278,-0.00,0.37,0.93
34288,-0.01,0.38,0.93
34298,-0.01,0.37,0.93
34307,-0.01,0.36,0.93
34317,-0.01,0.36,0.92
34326,0.00,0.36,0.92
34336,0.00,0.36,0.92
34346,-0.00,0.37,0.92
34355,-0.00,0.37,0.92
34365,-0.00,0.37,0.92
34375,-0.00,0.38,0.92
34384,-0.00,0.38,0.92
34394,-0.00,0.38,0.92
34403,-0.00,0.38,0.92
34413,-0.01,0.37,0.93
34423,-0.01,0.37,0.94
34432,-0.01,0.36,0.93
34442,-0.01,0.36,0.93
34451,-0.01,0.36,0.93
34461,-0.01,0.36,0.93
34471,-0.01,0.37,0.92
34480,-0.01,0.37,0.92
34490,-0.01,0.36,0.92
34500,-0.00,0.37,0.92
34509,-0.01,0.36,0.92
34519,-0.01,0.36,0.92
34528,-0.01,0.36,0.93
34538,-0.01,0.36,0.93
34548,-0.01,0.36,0.93
34557,-0.01,0.36,0.93
34567,-0.01,0.36,0.93
34576,-0.02,0.36,0.93
34586,-0.02,0.36,0.93
34596,-0.02,0.36,0.93
34605,-0.02,0.36,0.93
34615,-0.02,0.36,0.93
34625,-0.02,0.36,0.93
34634,-0.02,0.36,0.93
34644,-0.02,0.37,0.93
34653,-0.02,0.37,0.93
34663,-0.02,0.37,0.92
34673,-0.02,0.36,0.93
34682,-0.01,0.36,0.92
34692,-0.02,0.35,0.92
34701,-0.02,0.36,0.92
34711,-0.02,0.36,0.92
34721,-0.02,0.37,0.92
34730,-0.02,0.37,0.93
34740,-0.01,0.37,0.93
34750,-0.02,0.37,0.93
34759,-0.01,0.36,0.93
34769,-0.01,0.36,0.93
34778,-0.01,0.36,0.93
34788,-0.01,0.36,0.93
34798,-0.01,0.36,0.93
34807,-0.01,0.36,0.93
34817,-0.01,0.36,0.93
34826,-0.01,0.36,0.93
34836,-0.02,0.36,0.93
34846,-0.02,0.36,0.93
34855,-0.02,0.36,0.93
34865,-0.02,0.36,0.93
34875,-0.02,0.36,0.92
34884,-0.02,0.36,0.93
34894,-0.02,0.36,0.93
34903,-0.02,0.35,0.93
34913,-0.02,0.35,0.93
34923,-0.02,0.34,0.93
34932,-0.03,0.34,0.93
34942,-0.02,0.35,0.93
34951,-0.02,0.36,0.93
34961,-0.02,0.36,0.93
34971,-0.02,0.36,0.92
34980,-0.03,0.37,0.93
34990,-0.02,0.36,0.93
35000,-0.02,0.36,0.93
35009,-0.02,0.35,0.93
35019,-0.02,0.34,0.92
35028,-0.02,0.34,0.93
35038,-0.02,0.35,0.93
35048,-0.02,0.35,0.93
35057,-0.02,0.36,0.93
35067,-0.02,0.36,0.93
35076,-0.02,0.36,0.93
35086,-0.02,0.36,0.93
35096,-0.02,0.35,0.93
35105,-0.03,0.35,0.93
35115,-0.03,0.36,0.93
35125,-0.03,0.36,0.93
35134,-0.03,0.35,0.93
35144,-0.03,0.35,0.94
35153,-0.03,0.34,0.94
35163,-0.03,0.34,0.94
35173,-0.03,0.35,0.93
35182,-0.03,0.35,0.93
35192,-0.02,0.35,0.92
35201,-0.02,0.36,0.92
35211,-0.02,0.35,0.92
35221,-0.02,0.35,0.92
35230,-0.03,0.35,0.92
35240,-0.03,0.36,0.92
35250,-0.03,0.36,0.93
35259,-0.03,0.36,0.93
35269,-0.03,0.36,0.93
35278,-0.03,0.35,0.93
35288,-0.03,0.35,0.93
35298,-0.03,0.35,0.93
35307,-0.03,0.34,0.93
35317,-0.03,0.34,0.94
35326,-0.03,0.34,0.93
35336,-0.02,0.35,0.93
35346,-0.03,0.35,0.93
35355,-0.03,0.34,0.94
35365,-0.04,0.34,0.94
35375,-0.04,0.35,0.94
35384,-0.04,0.35,0.94
35394,-0.04,0.35,0.94
35403,-0.04,0.34,0.94
35413,-0.03,0.34,0.94
35423,-0.03,0.34,0.93
35432,-0.03,0.34,0.93
35442,-0.03,0.34,0.93
35451,-0.03,0.35,0.93
35461,-0.03,0.36,0.93
35471,-0.03,0.36,0.93
35480,-0.03,0.35,0.93
35490,-0.03,0.35,0.93
35500,-0.03,0.35,0.93
35509,-0.03,0.34,0.93
35519,-0.03,0.35,0.93
35528,-0.03,0.35,0.93
35538,-0.03,0.34,0.93
35548,-0.03,0.35,0.94
35557,-0.03,0.35,0.93
35567,-0.03,0.35,0.94
35576,-0.03,0.35,0.94
35586,-0.03,0.35,0.94
35596,-0.03,0.34,0.94
35605,-0.03,0.34,0.93
35615,-0.03,0.34,0.93
35625,-0.03,0.34,0.93
35634,-0.03,0.35,0.93
35644,-0.03,0.35,0.93
35653,-0.03,0.35,0.93
35663,-0.03,0.35,0.93
35673,-0.04,0.35,0.93
35682,-0.03,0.35,0.93
35692,-0.04,0.34,0.94
35701,-0.04,0.34,0.94
35711,-0.03,0.34,0.93
35721,-0.03,0.34,0.93
35730,-0.03,0.35,0.93
35740,-0.03,0.35,0.93
35750,-0.03,0.35,0.93
35759,-0.03,0.35,0.93
35769,-0.03,0.35,0.93
35778,-0.03,0.34,0.94
35788,-0.04,0.34,0.94
35798,-0.04,0.34,0.93
35807,-0.04,0.34,0.93
35817,-0.03,0.34,0.93
35826,-0.03,0.35,0.93
35836,-0.03,0.35,0.93
35846,-0.03,0.35,0.93
35855,-0.03,0.35,0.93
35865,-0.03,0.35,0.93
35875,-0.04,0.35,0.94
35884,-0.04,0.34,0.94
35894,-0.03,0.34,0.94
35903,-0.03,0.34,0.93
35913,-0.04,0.33,0.93
35923,-0.03,0.34,0.93
35932,-0.03,0.34,0.94
35942,-0.03,0.35,0.93
35951,-0.03,0.35,0.93
35961,-0.03,0.35,0.93
35971,-0.03,0.35,0.93
35980,-0.03,0.35,0.93
35990,-0.03,0.35,0.93
36000,-0.03,0.34,0.93
36009,-0.04,0.34,0.94
36019,-0.04,0.34,0.94
36028,-0.04,0.34,0.93
36038,-0.04,0.35,0.93
36048,-0.03,0.35,0.93
36057,-0.03,0.34,0.93
36067,-0.03,0.35,0.93
36076,-0.03,0.35,0.93
36086,-0.03,0.35,0.93
36096,-0.03,0.35,0.93
36105,-0.03,0.35,0.93
36115,-0.03,0.35,0.93
36125,-0.03,0.34,0.93
36134,-0.03,0.34,0.94
36144,-0.03,0.34,0.94
36153,-0.03,0.34,0.93
36163,-0.03,0.34,0.94
36173,-0.03,0.34,0.94
36182,-0.03,0.34,0.93
36192,-0.03,0.34,0.93
36201,-0.03,0.34,0.93
36211,-0.03,0.34,0.93
36221,-0.03,0.34,0.93
36230,-0.04,0.34,0.93
36240,-0.04,0.34,0.93
36250,-0.04,0.35,0.94
36259,-0.04,0.35,0.94
36269,-0.04,0.35,0.94
36278,-0.04,0.34,0.94
36288,-0.04,0.34,0.94
36298,-0.04,0.33,0.94
36307,-0.04,0.33,0.94
36317,-0.04,0.34,0.93
36326,-0.04,0.35,0.93
36336,-0.03,0.35,0.93
36346,-0.03,0.35,0.93
36355,-0.03,0.35,0.93
36365,-0.03,0.35,0.93
36375,-0.03,0.35,0.93
36384,-0.03,0.35,0.94
36394,-0.03,0.35,0.94
36403,-0.04,0.34,0.94
36413,-0.03,0.35,0.93
36423,-0.03,0.35,0.93
36432,-0.03,0.35,0.93
36442,-0.03,0.35,0.94
36451,-0.04,0.35,0.94
36461,-0.04,0.35,0.94
36471,-0.03,0.35,0.93
36480,-0.03,0.35,0.94
36490,-0.03,0.35,0.94
36500,-0.02,0.35,0.93
36509,-0.02,0.34,0.93
36519,-0.02,0.35,0.92
36528,-0.02,0.35,0.92
36538,-0.02,0.35,0.92
36548,-0.03,0.35,0.93
36557,-0.03,0.36,0.93
36567,-0.03,0.36,0.93
36576,-0.03,0.36,0.93
36586,-0.03,0.36,0.93
36596,-0.03,0.36,0.93
36605,-0.03,0.36,0.93
36615,-0.02,0.36,0.93
36625,-0.02,0.36,0.92
36634,-0.02,0.36,0.93
36644,-0.02,0.35,0.93
36653,-0.02,0.35,0.93
36663,-0.02,0.35,0.92
36673,-0.02,0.35,0.92
36682,-0.02,0.36,0.93
36692,-0.02,0.36,0.94
36701,-0.03,0.35,0.94
36711,-0.03,0.35,0.94
36721,-0.03,0.35,0.94
36730,-0.03,0.35,0.93
36740,-0.03,0.36,0.93
36750,-0.02,0.36,0.92
36759,-0.02,0.36,0.92
36769,-0.02,0.35,0.93
36778,-0.02,0.35,0.93
36788,-0.03,0.36,0.93
36798,-0.03,0.36,0.93
36807,-0.03,0.36,0.93
36817,-0.03,0.36,0.94
36826,-0.03,0.35,0.94
36836,-0.02,0.35,0.93
36846,-0.02,0.35,0.93
36855,-0.02,0.35,0.93
36865,-0.02,0.35,0.93
36875,-0.02,0.35,0.93
36884,-0.02,0.36,0.93
36894,-0.03,0.36,0.93
36903,-0.02,0.36,0.93
36913,-0.02,0.37,0.92
36923,-0.02,0.37,0.92
36932,-0.02,0.37,0.93
36942,-0.02,0.36,0.93
36951,-0.02,0.36,0.93
36961,-0.02,0.36,0.93
36971,-0.02,0.36,0.93
36980,-0.02,0.36,0.92
36990,-0.02,0.36,0.93
37000,-0.01,0.37,0.93
37009,-0.02,0.36,0.93
37019,-0.02,0.36,0.93
37028,-0.02,0.36,0.93
37038,-0.02,0.36,0.92
37048,-0.02,0.36,0.92
37057,-0.01,0.36,0.93
37067,-0.01,0.36,0.93
37076,-0.01,0.36,0.92
37086,-0.01,0.36,0.92
37096,-0.01,0.36,0.92
37105,-0.02,0.37,0.93
37115,-0.02,0.37,0.93
37125,-0.02,0.37,0.93
37134,-0.02,0.36,0.94
37144,-0.02,0.36,0.94
37153,-0.02,0.35,0.94
37163,-0.02,0.35,0.93
37173,-0.02,0.36,0.93
37182,-0.01,0.38,0.92
37192,-0.00,0.38,0.92
37201,-0.00,0.38,0.91
37211,-0.01,0.38,0.92
37221,-0.01,0.38,0.92
37230,-0.00,0.37,0.92
37240,-0.00,0.36,0.92
37250,0.00,0.36,0.92
37259,-0.00,0.37,0.92
37269,-0.00,0.37,0.92
37278,-0.00,0.37,0.92
37288,-0.00,0.37,0.91
37298,-0.00,0.37,0.92
37307,-0.01,0.38,0.92
37317,-0.01,0.37,0.93
37326,-0.01,0.37,0.92
37336,-0.01,0.37,0.93
37346,-0.02,0.36,0.93
37355,-0.02,0.36,0.93
37365,-0.01,0.36,0.93
37375,-0.02,0.36,0.93
37384,-0.02,0.37,0.93
37394,-0.02,0.37,0.93
37403,-0.03,0.37,0.92
37413,-0.03,0.37,0.92
37423,-0.02,0.37,0.92
37432,-0.03,0.37,0.92
37442,-0.03,0.37,0.92
37451,-0.03,0.37,0.92
37461,-0.03,0.37,0.92
37471,-0.03,0.36,0.92
37480,-0.03,0.36,0.92
37490,-0.03,0.37,0.94
37500,-0.02,0.37,0.92
37509,-0.02,0.37,0.91
37519,-0.01,0.37,0.91
37528,-0.01,0.38,0.92
37538,-0.01,0.37,0.92
37548,-0.01,0.37,0.92
37557,-0.01,0.37,0.92
37567,-0.00,0.37,0.92
37576,0.00,0.36,0.92
37586,0.01,0.37,0.92
37596,0.00,0.37,0.93
37605,-0.00,0.37,0.93
37615,-0.01,0.37,0.93
37625,-0.01,0.37,0.94
37634,-0.01,0.36,0.93
37644,-0.01,0.36,0.93
37653,-0.01,0.36,0.93
37663,-0.01,0.36,0.93
37673,-0.01,0.37,0.92
37682,-0.01,0.37,0.92
37692,-0.01,0.37,0.92
37701,-0.01,0.37,0.91
37711,-0.01,0.38,0.91
37721,-0.01,0.38,0.91
37730,-0.01,0.38,0.91
37740,-0.02,0.38,0.92
37750,-0.02,0.37,0.92
37759,-0.02,0.38,0.92
37769,-0.01,0.38,0.92
37778,-0.01,0.37,0.92
37788,-0.01,0.37,0.92
37798,-0.02,0.38,0.92
37807,-0.02,0.38,0.93
37817,-0.02,0.37,0.92
37826,-0.02,0.37,0.92
37836,-0.02,0.37,0.92
37846,-0.02,0.38,0.92
37855,-0.02,0.38,0.92
37865,-0.01,0.38,0.91
37875,-0.01,0.39,0.91
37884,-0.01,0.39,0.92
37894,-0.01,0.38,0.92
37903,-0.01,0.38,0.92
37913,-0.01,0.37,0.92
37923,-0.01,0.37,0.93
37932,-0.01,0.37,0.93
37942,-0.01,0.37,0.93
37951,-0.01,0.37,0.93
37961,-0.01,0.37,0.93
37971,-0.00,0.38,0.92
37980,-0.00,0.38,0.92
37990,-0.00,0.38,0.92
38000,-0.00,0.39,0.92
38009,-0.00,0.38,0.91
38019,-0.00,0.38,0.91
38028,-0.00,0.38,0.91
38038,-0.01,0.38,0.91
38048,-0.01,0.38,0.91
38057,-0.01,0.38,0.91
38067,-0.01,0.38,0.92
38076,-0.01,0.38,0.92
38086,-0.01,0.38,0.91
38096,-0.01,0.38,0.91
38105,-0.01,0.38,0.92
38115,-0.01,0.38,0.92
38125,-0.02,0.38,0.92
38134,-0.01,0.38,0.92
38144,-0.01,0.38,0.92
38153,-0.01,0.38,0.92
38163,-0.01,0.38,0.92
38173,-0.01,0.38,0.92
38182,-0.01,0.37,0.92
38192,-0.02,0.37,0.92
38201,-0.01,0.37,0.93
38211,-0.02,0.37,0.92
38221,-0.01,0.37,0.92
38230,-0.01,0.37,0.92
38240,-0.01,0.37,0.91
38250,-0.01,0.37,0.91
38259,-0.01,0.39,0.92
38269,-0.01,0.38,0.91
38278,-0.01,0.38,0.91
38288,-0.02,0.38,0.92
38298,-0.02,0.38,0.93
38307,-0.02,0.38,0.93
38317,-0.01,0.37,0.92
38326,-0.01,0.37,0.92
38336,-0.01,0.36,0.92
38346,-0.01,0.37,0.92
38355,-0.01,0.37,0.92
38365,-0.01,0.38,0.92
38375,-0.01,0.38,0.92
38384,-0.02,0.38,0.93
38394,-0.02,0.37,0.93
38403,-0.01,0.37,0.93
38413,-0.01,0.37,0.93
38423,-0.01,0.37,0.92
38432,-0.01,0.37,0.92
38442,-0.01,0.38,0.92
38451,-0.01,0.38,0.91
38461,-0.01,0.38,0.91
38471,-0.01,0.38,0.91
38480,-0.01,0.38,0.92
38490,-0.02,0.38,0.92
38500,-0.02,0.38,0.92
38509,-0.01,0.38,0.92
38519,-0.01,0.38,0.92
38528,-0.01,0.38,0.92
38538,-0.01,0.38,0.92
38548,-0.01,0.37,0.92
38557,-0.02,0.37,0.92
38567,-0.02,0.38,0.93
38576,-0.02,0.38,0.93
38586,-0.02,0.37,0.92
38596,-0.01,0.37,0.91
38605,-0.01,0.37,0.92
38615,-0.02,0.37,0.92
38625,-0.02,0.37,0.92
38634,-0.02,0.38,0.92
38644,-0.02,0.38,0.92
38653,-0.01,0.38,0.92
38663,-0.01,0.38,0.92
38673,-0.01,0.38,0.92
38682,-0.01,0.37,0.92
38692,-0.01,0.37,0.93
38701,-0.01,0.37,0.93
38711,-0.01,0.37,0.93
38721,-0.01,0.37,0.92
38730,-0.01,0.37,0.92
38740,-0.01,0.38,0.92
38750,-0.01,0.38,0.92
38759,-0.01,0.38,0.92
38769,-0.01,0.37,0.92
38778,-0.01,0.37,0.92
38788,-0.01,0.38,0.92
38798,-0.01,0.38,0.92
38807,-0.01,0.38,0.92
38817,-0.01,0.38,0.92
38826,-0.01,0.38,0.92
38836,-0.01,0.37,0.92
38846,-0.01,0.37,0.92
38855,-0.02,0.37,0.92
38865,-0.02,0.37,0.93
38875,-0.02,0.37,0.93
38884,-0.01,0.37,0.92
38894,-0.01,0.37,0.92
38903,-0.01,0.37,0.92
38913,-0.01,0.37,0.92
38923,-0.01,0.37,0.92
38932,-0.01,0.37,0.92
38942,-0.01,0.38,0.92
38951,-0.01,0.38,0.92
38961,-0.01,0.38,0.92
38971,-0.01,0.37,0.92
38980,-0.01,0.37,0.92
38990,-0.01,0.37,0.92
39000,-0.01,0.37,0.92
39009,-0.01,0.36,0.91
39019,-0.01,0.37,0.92
39028,-0.01,0.39,0.93
39038,-0.01,0.38,0.92
39048,-0.01,0.38,0.91
39057,-0.01,0.38,0.92
39067,-0.01,0.38,0.92
39076,-0.01,0.38,0.92
39086,-0.00,0.37,0.92
39096,-0.01,0.36,0.92
39105,-0.01,0.37,0.92
39115,-0.01,0.37,0.92
39125,-0.01,0.37,0.92
39134,-0.01,0.37,0.92
39144,-0.01,0.37,0.92
39153,-0.01,0.37,0.92
39163,-0.01,0.37,0.93
39173,-0.01,0.37,0.93
39182,-0.01,0.37,0.93
39192,-0.01,0.36,0.93
39201,-0.01,0.36,0.93
39211,-0.01,0.37,0.92
39221,-0.00,0.37,0.92
39230,-0.00,0.38,0.91
39240,-0.00,0.38,0.91
39250,-0.00,0.37,0.91
39259,-0.00,0.38,0.92
39269,-0.01,0.38,0.93
39278,-0.01,0.38,0.93
39288,-0.01,0.37,0.92
39298,-0.00,0.37,0.92
39307,-0.00,0.37,0.92
39317,-0.00,0.37,0.91
39326,-0.01,0.37,0.92
39336,-0.01,0.37,0.93
39346,-0.01,0.37,0.93
39355,-0.01,0.36,0.92
39365,-0.01,0.36,0.92
39375,-0.01,0.36,0.93
39384,-0.01,0.36,0.93
39394,-0.01,0.36,0.93
39403,-0.01,0.36,0.93
39413,-0.01,0.36,0.93
39423,-0.00,0.36,0.92
39432,-0.00,0.36,0.93
39442,-0.00,0.36,0.93
39451,-0.01,0.37,0.93
39461,-0.01,0.36,0.93
39471,-0.01,0.36,0.93
39480,-0.01,0.35,0.93
39490,-0.01,0.35,0.93
39500,-0.01,0.35,0.93
39509,-0.00,0.35,0.93
39519,0.00,0.36,0.93
39528,0.00,0.36,0.92
39538,0.00,0.37,0.92
39548,0.00,0.37,0.92
39557,0.00,0.37,0.92
39567,0.00,0.37,0.92
39576,0.00,0.36,0.92
39586,-0.00,0.36,0.92
39596,-0.00,0.35,0.93
39605,-0.00,0.35,0.93
39615,-0.00,0.36,0.93
39625,0.00,0.36,0.93
39634,0.00,0.36,0.93
39644,0.00,0.36,0.93
39653,0.00,0.36,0.93
39663,-0.00,0.36,0.93
39673,-0.00,0.36,0.93
39682,-0.01,0.36,0.93
39692,-0.01,0.36,0.93
39701,-0.01,0.36,0.93
39711,-0.01,0.36,0.93
39721,-0.01,0.36,0.93
39730,-0.00,0.36,0.92
39740,0.00,0.36,0.92
39750,0.00,0.36,0.92
39759,-0.00,0.36,0.92
39769,-0.01,0.36,0.93
39778,-0.01,0.36,0.93
39788,-0.01,0.36,0.93
39798,-0.01,0.36,0.93
39807,-0.01,0.36,0.93
39817,-0.01,0.35,0.93
39826,-0.01,0.36,0.93
39836,-0.01,0.36,0.93
39846,-0.01,0.36,0.92
39855,-0.01,0.36,0.92
39865,-0.02,0.36,0.93
39875,-0.02,0.37,0.93
39884,-0.01,0.37,0.93
39894,-0.01,0.36,0.92
39903,-0.01,0.36,0.92
39913,-0.01,0.35,0.92
39923,-0.01,0.36,0.92
39932,-0.01,0.36,0.92
39942,-0.01,0.36,0.93
39951,-0.01,0.36,0.93
39961,-0.01,0.36,0.93
39971,-0.02,0.36,0.93
39980,-0.02,0.36,0.94
39990,-0.02,0.36,0.94
40000,-0.02,0.35,0.94
40009,-0.02,0.35,0.94
40019,-0.01,0.35,0.93
40028,-0.01,0.35,0.93
40038,-0.01,0.35,0.93
40048,-0.01,0.36,0.92
40057,-0.01,0.36,0.92
40067,-0.01,0.36,0.92
40076,-0.01,0.36,0.92
40086,-0.02,0.36,0.92
40096,-0.02,0.37,0.93
40105,-0.02,0.37,0.93
40115,-0.02,0.36,0.92
40125,-0.02,0.35,0.93
40134,-0.02,0.36,0.94
40144,-0.02,0.35,0.94
40153,-0.02,0.35,0.93
40163,-0.02,0.35,0.93
40173,-0.02,0.35,0.93
40182,-0.02,0.35,0.93
40192,-0.02,0.35,0.93
40201,-0.02,0.35,0.93
40211,-0.02,0.35,0.93
40221,-0.02,0.35,0.93
40230,-0.03,0.35,0.93
40240,-0.03,0.35,0.93
40250,-0.02,0.35,0.93
40259,-0.02,0.35,0.93
40269,-0.03,0.35,0.94
40278,-0.03,0.35,0.94
40288,-0.03,0.35,0.94
40298,-0.03,0.35,0.94
40307,-0.03,0.35,0.93
40317,-0.03,0.35,0.93
40326,-0.03,0.35,0.93
40336,-0.02,0.35,0.92
40346,-0.02,0.35,0.92
40355,-0.02,0.35,0.92
40365,-0.02,0.36,0.93
40375,-0.02,0.36,0.93
40384,-0.03,0.36,0.93
40394,-0.03,0.36,0.93
40403,-0.02,0.36,0.93
40413,-0.02,0.35,0.93
40423,-0.02,0.35,0.93
40432,-0.02,0.35,0.93
40442,-0.03,0.34,0.93
40451,-0.03,0.35,0.93
40461,-0.03,0.35,0.93
40471,-0.03,0.36,0.93
40480,-0.02,0.36,0.93
40490,-0.02,0.36,0.93
40500,-0.03,0.36,0.94
40509,-0.03,0.35,0.94
40519,-0.03,0.34,0.94
40528,-0.03,0.34,0.93
40538,-0.03,0.34,0.93
40548,-0.03,0.34,0.93
40557,-0.03,0.34,0.93
40567,-0.03,0.35,0.93
40576,-0.03,0.35,0.93
40586,-0.03,0.35,0.93
40596,-0.03,0.35,0.93
40605,-0.03,0.35,0.93
40615,-0.03,0.35,0.93
40625,-0.03,0.34,0.93
40634,-0.03,0.34,0.93
40644,-0.04,0.34,0.93
40653,-0.04,0.34,0.93
40663,-0.04,0.34,0.93
40673,-0.04,0.35,0.93
40682,-0.04,0.35,0.94
40692,-0.04,0.34,0.93
40701,-0.04,0.34,0.93
40711,-0.04,0.35,0.93
40721,-0.04,0.35,0.93
40730,-0.03,0.35,0.93
40740,-0.03,0.35,0.92
40750,-0.03,0.34,0.92
40759,-0.03,0.34,0.92
40769,-0.03,0.35,0.92
40778,-0.03,0.35,0.93
40788,-0.04,0.35,0.93
40798,-0.04,0.35,0.94
40807,-0.04,0.35,0.94
40817,-0.04,0.35,0.94
40826,-0.04,0.35,0.94
40836,-0.04,0.34,0.94
40846,-0.04,0.34,0.94
40855,-0.04,0.34,0.94
40865,-0.05,0.33,0.94
40875,-0.05,0.34,0.94
40884,-0.04,0.34,0.93
40894,-0.04,0.35,0.93
40903,-0.04,0.35,0.93
40913,-0.04,0.35,0.92
40923,-0.04,0.35,0.93
40932,-0.04,0.35,0.93
40942,-0.04,0.35,0.93
40951,-0.04,0.35,0.93
40961,-0.04,0.35,0.93
40971,-0.05,0.35,0.93
40980,-0.04,0.35,0.93
40990,-0.04,0.35,0.93
41000,-0.04,0.35,0.93
41009,-0.04,0.34,0.93
41019,-0.04,0.34,0.93
41028,-0.04,0.34,0.93
41038,-0.04,0.34,0.93
41048,-0.04,0.34,0.93
41057,-0.04,0.34,0.93
41067,-0.04,0.34,0.93
41076,-0.04,0.35,0.93
41086,-0.04,0.35,0.93
41096,-0.05,0.35,0.94
41105,-0.05,0.35,0.93
41115,-0.05,0.35,0.94
41125,-0.05,0.34,0.94
41134,-0.05,0.34,0.94
41144,-0.05,0.34,0.94
41153,-0.05,0.34,0.94
41163,-0.05,0.34,0.93
41173,-0.05,0.34,0.93
41182,-0.05,0.35,0.93
41192,-0.04,0.35,0.93
41201,-0.04,0.35,0.92
41211,-0.04,0.35,0.93
41221,-0.04,0.35,0.93
41230,-0.04,0.34,0.93
41240,-0.04,0.35,0.93
41250,-0.04,0.35,0.93
41259,-0.05,0.35,0.93
41269,-0.05,0.35,0.93
41278,-0.05,0.35,0.93
41288,-0.05,0.35,0.93
41298,-0.05,0.34,0.93
41307,-0.05,0.34,0.93
41317,-0.04,0.33,0.93
41326,-0.04,0.33,0.94
41336,-0.05,0.34,0.94
41346,-0.05,0.35,0.94
41355,-0.06,0.35,0.94
41365,-0.05,0.35,0.94
41375,-0.05,0.35,0.94
41384,-0.04,0.34,0.93
41394,-0.04,0.34,0.93
41403,-0.04,0.34,0.93
41413,-0.04,0.34,0.93
41423,-0.05,0.35,0.93
41432,-0.04,0.35,0.93
41442,-0.04,0.35,0.93
41451,-0.04,0.35,0.93
41461,-0.04,0.35,0.93
41471,-0.05,0.35,0.93
41480,-0.05,0.35,0.93
41490,-0.05,0.35,0.93
41500,-0.05,0.35,0.93
41509,-0.05,0.35,0.93
41519,-0.05,0.35,0.93
41528,-0.05,0.35,0.93
41538,-0.05,0.35,0.93
41548,-0.05,0.35,0.94
41557,-0.05,0.35,0.93
41567,-0.05,0.35,0.94
41576,-0.05,0.34,0.94
41586,-0.05,0.34,0.93
41596,-0.05,0.34,0.93
41605,-0.05,0.34,0.93
41615,-0.04,0.35,0.93
41625,-0.04,0.35,0.93
41634,-0.04,0.35,0.93
41644,-0.04,0.35,0.93
41653,-0.05,0.34,0.93
41663,-0.05,0.35,0.94
41673,-0.05,0.35,0.94
41682,-0.05,0.35,0.94
41692,-0.05,0.35,0.93
41701,-0.05,0.34,0.93
41711,-0.05,0.34,0.93
41721,-0.05,0.34,0.93
41730,-0.05,0.34,0.93
41740,-0.05,0.34,0.93
41750,-0.05,0.35,0.93
41759,-0.05,0.35,0.93
41769,-0.05,0.35,0.93
41778,-0.05,0.36,0.93
41788,-0.05,0.36,0.93
41798,-0.05,0.35,0.93
41807,-0.05,0.35,0.93
41817,-0.04,0.34,0.93
41826,-0.05,0.34,0.93
41836,-0.05,0.34,0.93
41846,-0.05,0.34,0.93
41855,-0.05,0.34,0.93
41865,-0.05,0.34,0.93
41875,-0.05,0.34,0.93
41884,-0.05,0.34,0.93
41894,-0.04,0.35,0.93
41903,-0.04,0.35,0.93
41913,-0.04,0.34,0.93
41923,-0.05,0.34,0.93
41932,-0.05,0.34,0.93
41942,-0.05,0.34,0.94
41951,-0.05,0.35,0.94
41961,-0.05,0.35,0.94
41971,-0.05,0.34,0.94
41980,-0.06,0.34,0.94
41990,-0.05,0.34,0.94
42000,-0.05,0.34,0.94
42009,-0.05,0.34,0.93
42019,-0.05,0.35,0.93
42028,-0.05,0.35,0.92
42038,-0.05,0.35,0.92
42048,-0.05,0.35,0.92
42057,-0.04,0.36,0.92
42067,-0.04,0.35,0.93
42076,-0.04,0.35,0.93
42086,-0.05,0.35,0.93
42096,-0.05,0.34,0.94
42105,-0.05,0.34,0.93
42115,-0.05,0.35,0.93
42125,-0.05,0.35,0.93
42134,-0.05,0.35,0.93
42144,-0.05,0.35,0.93
42153,-0.04,0.35,0.94
42163,-0.05,0.34,0.94
42173,-0.05,0.34,0.93
42182,-0.05,0.34,0.93
42192,-0.04,0.34,0.93
42201,-0.04,0.35,0.93
42211,-0.05,0.35,0.93
42221,-0.05,0.36,0.93
42230,-0.04,0.35,0.93
42240,-0.04,0.35,0.93
42250,-0.04,0.35,0.93
42259,-0.04,0.35,0.93
42269,-0.04,0.34,0.93
42278,-0.04,0.35,0.93
42288,-0.04,0.35,0.93
42298,-0.04,0.35,0.93
42307,-0.04,0.35,0.92
42317,-0.05,0.34,0.92
42326,-0.05,0.35,0.93
42336,-0.05,0.35,0.94
42346,-0.05,0.35,0.93
42355,-0.05,0.34,0.93
42365,-0.05,0.35,0.93
42375,-0.05,0.35,0.93
42384,-0.04,0.35,0.93
42394,-0.04,0.35,0.93
42403,-0.04,0.35,0.93
42413,-0.04,0.34,0.93
42423,-0.05,0.34,0.93
42432,-0.05,0.35,0.94
42442,-0.05,0.35,0.94
42451,-0.04,0.35,0.94
42461,-0.04,0.34,0.94
42471,-0.03,0.34,0.93
42480,-0.03,0.34,0.93
42490,-0.03,0.34,0.93
42500,-0.04,0.34,0.93
42509,-0.04,0.35,0.93
42519,-0.04,0.35,0.93
42528,-0.04,0.35,0.93
42538,-0.03,0.35,0.93
42548,-0.03,0.35,0.93
42557,-0.03,0.35,0.93
42567,-0.03,0.35,0.92
42576,-0.04,0.35,0.93
42586,-0.03,0.35,0.93
42596,-0.03,0.36,0.92
42605,-0.04,0.36,0.93
42615,-0.04,0.35,0.93
42625,-0.03,0.35,0.93
42634,-0.04,0.35,0.94
42644,-0.04,0.35,0.94
42653,-0.03,0.34,0.94
42663,-0.03,0.34,0.93
42673,-0.03,0.34,0.93
42682,-0.02,0.34,0.92
42692,-0.02,0.35,0.92
42701,-0.03,0.35,0.93
42711,-0.03,0.36,0.93
42721,-0.04,0.35,0.93
42730,-0.04,0.34,0.93
42740,-0.03,0.34,0.93
42750,-0.03,0.34,0.93
42759,-0.03,0.34,0.93
42769,-0.02,0.35,0.93
42778,-0.02,0.35,0.93
42788,-0.03,0.35,0.93
42798,-0.03,0.35,0.94
42807,-0.03,0.35,0.94
42817,-0.03,0.35,0.93
42826,-0.03,0.35,0.93
42836,-0.03,0.35,0.93
42846,-0.02,0.35,0.93
42855,-0.02,0.35,0.93
42865,-0.02,0.35,0.93
42875,-0.02,0.35,0.93
42884,-0.02,0.35,0.93
42894,-0.03,0.35,0.93
42903,-0.02,0.35,0.93
42913,-0.02,0.35,0.93
42923,-0.01,0.35,0.92
42932,-0.01,0.35,0.92
42942,-0.01,0.35,0.92
42951,-0.01,0.36,0.92
42961,-0.02,0.36,0.93
42971,-0.02,0.35,0.93
42980,-0.02,0.35,0.93
42990,-0.02,0.35,0.94
43000,-0.02,0.34,0.94
43009,-0.01,0.34,0.93
43019,-0.01,0.34,0.93
43028,-0.01,0.34,0.93
43038,-0.01,0.35,0.93
43048,-0.02,0.35,0.93
43057,-0.01,0.35,0.93
43067,-0.01,0.36,0.93
43076,-0.01,0.36,0.93
43086,-0.01,0.35,0.93
43096,-0.02,0.34,0.93
43105,-0.02,0.34,0.93
43115,-0.02,0.35,0.94
43125,-0.02,0.35,0.94
43134,-0.02,0.34,0.93
43144,-0.02,0.35,0.93
43153,-0.01,0.36,0.93
43163,-0.01,0.36,0.93
43173,-0.01,0.36,0.93
43182,-0.01,0.36,0.92
43192,-0.01,0.36,0.92
43201,-0.01,0.35,0.92
43211,-0.01,0.35,0.93
43221,-0.01,0.35,0.93
43230,-0.01,0.35,0.93
43240,-0.02,0.35,0.94
43250,-0.02,0.35,0.94
43259,-0.02,0.35,0.94
43269,-0.02,0.35,0.94
43278,-0.01,0.35,0.93
43288,-0.01,0.35,0.93
43298,-0.01,0.35,0.93
43307,-0.01,0.36,0.93
43317,-0.01,0.36,0.92
43326,-0.01,0.36,0.92
43336,-0.00,0.36,0.92
43346,-0.01,0.36,0.92
43355,-0.01,0.36,0.92
43365,-0.01,0.36,0.93
43375,-0.01,0.36,0.93
43384,-0.01,0.36,0.93
43394,-0.01,0.36,0.93
43403,-0.01,0.35,0.93
43413,-0.01,0.35,0.93
43423,-0.01,0.35,0.94
43432,-0.02,0.35,0.93
43442,-0.01,0.35,0.92
43451,-0.01,0.35,0.93
43461,-0.01,0.36,0.93
43471,-0.01,0.36,0.93
43480,-0.01,0.36,0.93
43490,-0.01,0.36,0.93
43500,-0.01,0.35,0.93
43509,-0.01,0.36,0.93
43519,-0.01,0.36,0.93
43528,-0.01,0.36,0.93
43538,-0.01,0.36,0.93
43548,-0.01,0.36,0.93
43557,-0.01,0.36,0.93
43567,-0.01,0.36,0.93
43576,-0.01,0.35,0.93
43586,-0.01,0.36,0.92
43596,-0.01,0.36,0.93
43605,-0.01,0.37,0.93
43615,-0.01,0.37,0.93
43625,-0.01,0.36,0.93
43634,-0.01,0.36,0.93
43644,-0.01,0.35,0.93
43653,-0.00,0.35,0.93
43663,0.00,0.36,0.92
43673,0.01,0.37,0.92
43682,0.01,0.37,0.92
43692,0.00,0.37,0.92
43701,0.00,0.37,0.92
43711,-0.00,0.37,0.92
43721,-0.00,0.37,0.92
43730,0.00,0.37,0.92
43740,0.00,0.37,0.92
43750,0.00,0.37,0.92
43759,-0.00,0.38,0.92
43769,-0.00,0.37,0.92
43778,-0.01,0.37,0.92
43788,-0.01,0.37,0.92
43798,-0.01,0.36,0.92
43807,-0.01,0.37,0.92
43817,-0.01,0.37,0.92
43826,-0.00,0.37,0.92
43836,0.00,0.36,0.91
43846,-0.00,0.36,0.90
43855,-0.01,0.37,0.92
43865,-0.01,0.37,0.93
43875,-0.01,0.37,0.92
43884,-0.02,0.36,0.92
43894,-0.01,0.37,0.92
43903,-0.01,0.37,0.93
43913,-0.01,0.36,0.93
43923,-0.00,0.36,0.92
43932,0.00,0.35,0.93
43942,0.00,0.35,0.93
43951,0.01,0.35,0.93
43961,0.01,0.36,0.93
43971,0.01,0.36,0.93
43980,0.00,0.36,0.94
43990,-0.00,0.35,0.94
44000,-0.00,0.35,0.94
44009,0.00,0.35,0.94
44019,0.00,0.36,0.94
44028,0.00,0.36,0.93
44038,0.01,0.36,0.93
44048,0.01,0.37,0.92
44057,0.01,0.37,0.92
44067,0.01,0.37,0.92
44076,0.01,0.37,0.92
44086,0.01,0.36,0.92
44096,0.00,0.36,0.92
44105,0.00,0.36,0.93
44115,-0.00,0.36,0.93
44125,-0.00,0.36,0.93
44134,0.00,0.36,0.93
44144,0.00,0.36,0.93
44153,0.00,0.35,0.93
44163,-0.00,0.36,0.93
44173,-0.00,0.36,0.94
44182,-0.00,0.36,0.93
44192,-0.00,0.36,0.93
44201,-0.00,0.36,0.93
44211,-0.00,0.36,0.93
44221,-0.00,0.36,0.93
44230,0.00,0.36,0.93
44240,0.01,0.36,0.92
44250,0.00,0.36,0.92
44259,0.00,0.36,0.93
44269,0.00,0.36,0.93
44278,0.00,0.36,0.93
44288,0.00,0.35,0.94
44298,0.00,0.35,0.93
44307,0.00,0.35,0.93
44317,0.00,0.36,0.93
44326,0.00,0.36,0.93
44336,0.00,0.36,0.93
44346,0.00,0.36,0.93
44355,0.00,0.36,0.92
44365,0.01,0.36,0.92
44375,0.01,0.36,0.92
44384,0.01,0.36,0.92
44394,0.01,0.36,0.92
44403,0.00,0.36,0.93
44413,0.00,0.36,0.93
44423,0.00,0.36,0.93
44432,0.00,0.36,0.93
44442,0.00,0.36,0.93
44451,0.00,0.36,0.93
44461,0.01,0.36,0.92
44471,0.01,0.36,0.92
44480,0.01,0.36,0.92
44490,0.01,0.36,0.92
44500,0.01,0.36,0.92
44509,0.01,0.36,0.92
44519,0.00,0.36,0.93
44528,-0.00,0.35,0.93
44538,-0.00,0.36,0.94
44548,0.00,0.35,0.94
44557,0.00,0.35,0.94
44567,0.00,0.36,0.94
44576,0.00,0.36,0.94
44586,0.01,0.35,0.92
44596,0.00,0.35,0.92
44605,0.00,0.36,0.93
44615,0.00,0.36,0.93
44625,-0.00,0.36,0.92
44634,-0.00,0.36,0.92
44644,-0.00,0.37,0.93
44653,-0.00,0.36,0.93
44663,0.01,0.36,0.93
44673,0.01,0.36,0.92
44682,0.01,0.35,0.92
44692,0.01,0.35,0.92
44701,0.00,0.36,0.93
44711,0.00,0.36,0.94
44721,0.00,0.36,0.94
44730,0.00,0.35,0.94
44740,0.01,0.35,0.94
44750,0.01,0.35,0.94
44759,0.01,0.35,0.94
44769,0.01,0.35,0.93
44778,0.00,0.36,0.93
44788,0.00,0.36,0.93
44798,0.01,0.36,0.92
44807,0.01,0.36,0.92
44817,0.01,0.36,0.92
44826,0.00,0.37,0.92
44836,0.00,0.37,0.92
44846,0.00,0.37,0.92
44855,0.01,0.37,0.92
44865,0.01,0.36,0.92
44875,0.01,0.36,0.92
44884,0.01,0.36,0.92
44894,0.01,0.35,0.92
44903,0.00,0.35,0.93
44913,-0.00,0.36,0.94
44923,-0.00,0.36,0.94
44932,-0.00,0.36,0.93
44942,0.00,0.35,0.93
44951,0.00,0.35,0.93
44961,0.00,0.35,0.93
44971,0.00,0.36,0.93
44980,0.01,0.36,0.92
44990,0.01,0.36,0.93
45000,0.00,0.36,0.93
45009,0.00,0.36,0.93
45019,0.00,0.36,0.93
45028,0.00,0.36,0.93
45038,0.00,0.36,0.93
45048,-0.00,0.35,0.93
45057,0.00,0.35,0.93
45067,0.00,0.35,0.93
45076,0.01,0.35,0.93
45086,0.01,0.35,0.93
45096,0.01,0.36,0.92
45105,0.01,0.36,0.92
45115,0.01,0.36,0.93
45125,0.01,0.36,0.93
45134,0.01,0.36,0.93
45144,0.01,0.36,0.93
45153,0.01,0.36,0.92
45163,0.01,0.36,0.92
45173,0.01,0.36,0.92
45182,0.01,0.36,0.92
45192,0.01,0.35,0.93
45201,0.00,0.35,0.93
45211,0.00,0.36,0.93
45221,0.00,0.36,0.93
45230,0.00,0.36,0.93
45240,0.00,0.35,0.93
45250,0.00,0.35,0.93
45259,0.00,0.35,0.93
45269,0.00,0.35,0.93
45278,0.00,0.35,0.93
45288,0.01,0.35,0.93
45298,0.01,0.35,0.93
45307,0.00,0.35,0.93
45317,0.00,0.36,0.93
45326,0.00,0.36,0.93
45336,0.00,0.36,0.93
45346,0.00,0.35,0.93
45355,0.01,0.35,0.92
45365,0.01,0.35,0.92
45375,0.01,0.35,0.92
45384,0.00,0.36,0.93
45394,0.00,0.36,0.93
45403,-0.00,0.35,0.93
45413,-0.00,0.35,0.93
45423,-0.00,0.35,0.94
45432,-0.00,0.35,0.93
45442,0.01,0.35,0.93
45451,0.01,0.35,0.92
45461,0.01,0.35,0.91
45471,0.01,0.35,0.92
45480,0.00,0.35,0.93
45490,0.00,0.35,0.94
45500,-0.00,0.35,0.94
45509,-0.00,0.35,0.94
45519,0.00,0.34,0.94
45528,-0.00,0.35,0.94
45538,-0.00,0.34,0.94
45548,-0.00,0.34,0.94
45557,-0.00,0.34,0.94
45567,-0.00,0.33,0.94
45576,-0.00,0.34,0.93
45586,0.00,0.34,0.93
45596,0.01,0.34,0.92
45605,0.00,0.35,0.92
45615,0.00,0.35,0.93
45625,-0.01,0.35,0.93
45634,-0.01,0.35,0.93
45644,-0.01,0.35,0.94
45653,-0.00,0.35,0.94
45663,0.00,0.34,0.93
45673,0.00,0.33,0.93
45682,-0.00,0.34,0.93
45692,-0.00,0.35,0.94
45701,-0.00,0.35,0.94
45711,-0.00,0.34,0.94
45721,-0.00,0.34,0.94
45730,-0.01,0.34,0.94
45740,-0.01,0.33,0.94
45750,-0.01,0.33,0.94
45759,-0.01,0.33,0.94
45769,-0.01,0.33,0.94
45778,-0.01,0.33,0.94
45788,-0.01,0.33,0.94
45798,-0.01,0.33,0.94
45807,-0.01,0.33,0.94
45817,-0.01,0.33,0.94
45826,-0.01,0.34,0.94
45836,-0.01,0.34,0.94
45846,-0.01,0.34,0.94
45855,-0.01,0.33,0.94
45865,-0.01,0.33,0.94
45875,-0.01,0.32,0.94
45884,-0.01,0.33,0.94
45894,-0.01,0.33,0.94
45903,-0.00,0.34,0.93
45913,-0.00,0.34,0.93
45923,-0.00,0.35,0.93
45932,-0.00,0.35,0.93
45942,-0.01,0.34,0.94
45951,-0.01,0.34,0.94
45961,-0.01,0.33,0.94
45971,-0.01,0.33,0.94
45980,-0.01,0.34,0.93
45990,-0.00,0.34,0.93
46000,-0.00,0.34,0.93
46009,-0.01,0.34,0.94
46019,-0.01,0.34,0.94
46028,-0.01,0.34,0.94
46038,-0.01,0.34,0.93
46048,-0.01,0.34,0.93
46057,-0.01,0.34,0.93
46067,-0.01,0.34,0.93
46076,-0.01,0.34,0.93
46086,-0.01,0.33,0.94
46096,-0.01,0.33,0.94
46105,-0.02,0.33,0.95
46115,-0.02,0.33,0.95
46125,-0.01,0.33,0.95
46134,-0.01,0.33,0.94
46144,-0.01,0.33,0.94
46153,-0.01,0.33,0.94
46163,-0.01,0.33,0.94
46173,-0.01,0.32,0.94
46182,-0.02,0.32,0.94
46192,-0.02,0.33,0.95
46201,-0.02,0.33,0.95
46211,-0.02,0.33,0.94
46221,-0.02,0.33,0.94
46230,-0.02,0.34,0.94
46240,-0.01,0.33,0.94
46250,-0.01,0.33,0.94
46259,-0.01,0.32,0.94
46269,-0.01,0.32,0.93
46278,-0.01,0.32,0.93
46288,-0.01,0.33,0.94
46298,-0.02,0.33,0.94
46307,-0.02,0.33,0.94
46317,-0.02,0.33,0.95
46326,-0.01,0.33,0.94
46336,-0.01,0.33,0.94
46346,-0.01,0.32,0.94
46355,-0.01,0.32,0.94
46365,-0.01,0.32,0.94
46375,-0.02,0.32,0.94
46384,-0.02,0.32,0.94
46394,-0.02,0.33,0.94
46403,-0.02,0.33,0.94
46413,-0.02,0.33,0.94
46423,-0.02,0.33,0.94
46432,-0.02,0.32,0.94
46442,-0.02,0.32,0.94
46451,-0.02,0.32,0.94
46461,-0.02,0.33,0.93
46471,-0.01,0.33,0.93
46480,-0.02,0.33,0.93
46490,-0.02,0.34,0.94
46500,-0.02,0.34,0.94
46509,-0.02,0.33,0.94
46519,-0.01,0.32,0.94
46528,-0.01,0.32,0.94
46538,-0.02,0.32,0.94
46548,-0.02,0.32,0.94
46557,-0.02,0.32,0.94
46567,-0.02,0.32,0.94
46576,-0.02,0.33,0.94
46586,-0.02,0.33,0.94
46596,-0.02,0.33,0.94
46605,-0.01,0.33,0.93
46615,-0.01,0.33,0.93
46625,-0.01,0.33,0.93
46634,-0.02,0.33,0.94
46644,-0.02,0.33,0.94
46653,-0.03,0.33,0.94
46663,-0.03,0.33,0.94
46673,-0.03,0.32,0.94
46682,-0.02,0.32,0.94
46692,-0.02,0.32,0.94
46701,-0.02,0.32,0.94
46711,-0.02,0.32,0.94
46721,-0.02,0.32,0.94
46730,-0.02,0.33,0.94
46740,-0.02,0.33,0.94
46750,-0.02,0.33,0.94
46759,-0.02,0.33,0.94
46769,-0.02,0.32,0.94
46778,-0.02,0.32,0.94
46788,-0.02,0.32,0.94
46798,-0.02,0.32,0.94
46807,-0.02,0.32,0.94
46817,-0.02,0.32,0.94
46826,-0.02,0.32,0.94
46836,-0.02,0.33,0.94
46846,-0.02,0.33,0.94
46855,-0.02,0.33,0.93
46865,-0.02,0.33,0.93
46875,-0.02,0.33,0.94
46884,-0.02,0.33,0.94
46894,-0.03,0.32,0.94
46903,-0.03,0.32,0.95
46913,-0.03,0.32,0.95
46923,-0.03,0.32,0.95
46932,-0.02,0.32,0.94
46942,-0.02,0.33,0.94
46951,-0.02,0.33,0.94
46961,-0.02,0.32,0.94
46971,-0.02,0.32,0.94
46980,-0.02,0.32,0.94
46990,-0.02,0.32,0.94
47000,-0.02,0.32,0.94
47009,-0.03,0.32,0.94
47019,-0.02,0.32,0.95
47028,-0.02,0.32,0.95
47038,-0.02,0.31,0.95
47048,-0.03,0.31,0.96
47057,-0.03,0.31,0.96
47067,-0.03,0.30,0.96
47076,-0.03,0.30,0.97
47086,-0.02,0.29,0.97
47096,-0.02,0.28,0.97
47105,-0.02,0.28,0.97
47115,-0.02,0.29,0.97
47125,-0.02,0.30,0.97
47134,-0.02,0.32,0.96
47144,-0.01,0.34,0.96
47153,-0.01,0.35,0.95
47163,-0.00,0.36,0.93
47173,-0.00,0.38,0.91
47182,0.00,0.37,0.87
47192,-0.01,0.38,0.87
47201,-0.03,0.41,0.88
47211,-0.03,0.42,0.89
47221,-0.04,0.43,0.89
47230,-0.04,0.43,0.90
47240,-0.03,0.43,0.89
47250,-0.04,0.42,0.89
47259,-0.04,0.41,0.90
47269,-0.04,0.40,0.91
47278,-0.04,0.40,0.91
47288,-0.04,0.38,0.92
47298,-0.03,0.37,0.92
47307,-0.03,0.37,0.92
47317,-0.02,0.37,0.92
47326,-0.02,0.37,0.92
47336,-0.01,0.37,0.92
47346,-0.01,0.37,0.92
47355,-0.02,0.37,0.93
47365,-0.02,0.37,0.93
47375,-0.01,0.37,0.93
47384,-0.01,0.37,0.93
47394,-0.01,0.37,0.93
47403,-0.01,0.36,0.92
47413,-0.01,0.36,0.92
47423,-0.01,0.36,0.93
47432,-0.01,0.36,0.93
47442,-0.01,0.36,0.94
47451,-0.01,0.37,0.94
47461,-0.01,0.37,0.93
47471,-0.01,0.37,0.93
47480,-0.02,0.37,0.92
47490,-0.01,0.37,0.92
47500,-0.01,0.37,0.91
47509,-0.01,0.37,0.92
47519,-0.01,0.37,0.92
47528,-0.02,0.37,0.92
47538,-0.03,0.36,0.93
47548,-0.03,0.37,0.93
47557,-0.02,0.37,0.93
47567,-0.02,0.37,0.92
47576,-0.02,0.38,0.92
47586,-0.03,0.38,0.92
47596,-0.03,0.38,0.92
47605,-0.02,0.38,0.91
47615,-0.02,0.38,0.91
47625,-0.01,0.38,0.91
47634,-0.01,0.38,0.91
47644,-0.01,0.37,0.91
47653,-0.02,0.37,0.92
47663,-0.02,0.37,0.92
47673,-0.03,0.37,0.93
47682,-0.03,0.37,0.93
47692,-0.03,0.37,0.93
47701,-0.02,0.37,0.92
47711,-0.02,0.37,0.92
47721,-0.01,0.37,0.92
47730,-0.01,0.37,0.92
47740,-0.02,0.37,0.92
47750,-0.02,0.37,0.92
47759,-0.02,0.37,0.92
47769,-0.02,0.37,0.92
47778,-0.02,0.38,0.92
47788,-0.01,0.38,0.92
47798,-0.01,0.37,0.92
47807,-0.01,0.37,0.92
47817,-0.01,0.36,0.92
47826,-0.02,0.36,0.93
47836,-0.01,0.36,0.93
47846,-0.02,0.35,0.93
47855,-0.02,0.36,0.94
47865,-0.01,0.37,0.94
47875,-0.01,0.37,0.94
47884,-0.01,0.36,0.93
47894,-0.02,0.36,0.93
47903,-0.01,0.36,0.92
47913,-0.01,0.37,0.92
47923,-0.01,0.37,0.92
47932,-0.00,0.38,0.91
47942,-0.01,0.39,0.90
47951,-0.01,0.39,0.91
47961,-0.01,0.38,0.91
47971,-0.01,0.38,0.92
47980,-0.01,0.38,0.93
47990,-0.01,0.37,0.93
48000,-0.01,0.37,0.93
48009,-0.01,0.37,0.94
48019,-0.01,0.36,0.94
48028,-0.02,0.35,0.94
48038,-0.02,0.35,0.94
48048,-0.02,0.35,0.94
48057,-0.02,0.36,0.93
48067,-0.01,0.36,0.92
48076,-0.01,0.37,0.91
48086,-0.01,0.38,0.91
48096,-0.01,0.39,0.90
48105,-0.01,0.39,0.90
48115,-0.01,0.40,0.90
48125,-0.02,0.39,0.91
48134,-0.02,0.39,0.91
48144,-0.01,0.39,0.92
48153,-0.01,0.38,0.92
48163,-0.01,0.37,0.92
48173,-0.02,0.37,0.93
48182,-0.02,0.37,0.93
48192,-0.02,0.37,0.93
48201,-0.02,0.37,0.93
48211,-0.02,0.37,0.93
48221,-0.02,0.37,0.92
48230,-0.02,0.38,0.93
48240,-0.02,0.38,0.92
48250,-0.02,0.38,0.92
48259,-0.02,0.38,0.92
48269,-0.03,0.38,0.92
48278,-0.02,0.38,0.92
48288,-0.02,0.38,0.92
48298,-0.02,0.37,0.92
48307,-0.02,0.38,0.91
48317,-0.01,0.38,0.91
48326,-0.01,0.38,0.91
48336,-0.01,0.39,0.91
48346,-0.01,0.39,0.91
48355,-0.01,0.39,0.91
48365,-0.01,0.39,0.92
48375,-0.01,0.39,0.92
48384,-0.00,0.39,0.92
48394,-0.00,0.39,0.92
48403,0.00,0.38,0.92
48413,0.00,0.38,0.92
48423,-0.00,0.38,0.92
48432,-0.01,0.38,0.92
48442,-0.01,0.38,0.92
48451,-0.01,0.38,0.92
48461,-0.00,0.39,0.92
48471,-0.00,0.39,0.92
48480,-0.01,0.39,0.92
48490,-0.01,0.39,0.91
48500,-0.01,0.38,0.91
48509,-0.02,0.38,0.91
48519,-0.02,0.39,0.91
48528,-0.02,0.39,0.91
48538,-0.01,0.39,0.91
48548,-0.01,0.39,0.91
48557,-0.01,0.39,0.91
48567,-0.02,0.39,0.92
48576,-0.02,0.38,0.92
48586,-0.02,0.38,0.91
48596,-0.02,0.38,0.92
48605,-0.02,0.38,0.92
48615,-0.01,0.38,0.92
48625,-0.01,0.38,0.91
48634,-0.01,0.39,0.91
48644,-0.01,0.39,0.92
48653,-0.01,0.39,0.92
48663,-0.02,0.39,0.92
48673,-0.02,0.39,0.92
48682,-0.02,0.39,0.91
48692,-0.01,0.39,0.91
48701,-0.01,0.39,0.91
48711,-0.01,0.39,0.91
48721,-0.01,0.39,0.91
48730,-0.01,0.39,0.92
48740,-0.01,0.38,0.92
48750,-0.01,0.38,0.93
48759,-0.02,0.38,0.93
48769,-0.02,0.38,0.93
48778,-0.02,0.38,0.93
48788,-0.02,0.38,0.92
48798,-0.02,0.38,0.92
48807,-0.01,0.39,0.91
48817,-0.01,0.39,0.91
48826,-0.01,0.38,0.91
48836,-0.01,0.38,0.91
48846,-0.02,0.39,0.92
48855,-0.02,0.39,0.92
48865,-0.02,0.39,0.92
48875,-0.01,0.39,0.92
48884,-0.01,0.39,0.92
48894,-0.01,0.38,0.92
48903,-0.01,0.38,0.93
48913,-0.02,0.38,0.93
48923,-0.02,0.38,0.92
48932,-0.02,0.38,0.92
48942,-0.02,0.39,0.91
48951,-0.01,0.40,0.90
48961,-0.01,0.41,0.90
48971,0.00,0.41,0.89
48980,0.01,0.41,0.89
48990,0.01,0.40,0.89
49000,-0.00,0.39,0.90
49009,-0.01,0.38,0.91
49019,-0.02,0.38,0.92
49028,-0.02,0.38,0.92
49038,-0.02,0.38,0.93
49048,-0.02,0.38,0.93
49057,-0.02,0.37,0.93
49067,-0.02,0.37,0.93
49076,-0.01,0.37,0.93
49086,-0.02,0.36,0.93
49096,-0.02,0.37,0.93
49105,-0.01,0.37,0.92
49115,-0.01,0.37,0.92
49125,-0.01,0.38,0.92
49134,-0.01,0.38,0.91
49144,-0.01,0.39,0.91
49153,-0.01,0.39,0.91
49163,-0.01,0.39,0.91
49173,-0.02,0.39,0.91
49182,-0.02,0.39,0.92
49192,-0.02,0.38,0.92
49201,-0.02,0.38,0.92
49211,-0.02,0.38,0.92
49221,-0.02,0.38,0.92
49230,-0.02,0.38,0.92
49240,-0.01,0.38,0.92
49250,-0.01,0.39,0.92
49259,-0.01,0.39,0.91
49269,-0.01,0.40,0.91
49278,-0.01,0.40,0.91
49288,-0.01,0.40,0.91
49298,-0.01,0.39,0.92
49307,-0.02,0.39,0.92
49317,-0.02,0.39,0.92
49326,-0.02,0.38,0.92
49336,-0.02,0.38,0.92
49346,-0.02,0.38,0.91
49355,-0.02,0.38,0.91
49365,-0.01,0.39,0.91
49375,-0.01,0.40,0.92
49384,-0.01,0.39,0.91
49394,-0.01,0.39,0.91
49403,-0.02,0.39,0.92
49413,-0.01,0.39,0.92
49423,-0.01,0.39,0.92
49432,-0.01,0.39,0.92
49442,-0.01,0.39,0.92
49451,-0.01,0.38,0.92
49461,-0.01,0.39,0.92
49471,-0.00,0.39,0.92
49480,0.00,0.39,0.92
49490,0.00,0.39,0.92
49500,-0.00,0.38,0.92
49509,-0.01,0.38,0.92
49519,-0.01,0.38,0.93
49528,-0.01,0.38,0.93
49538,-0.01,0.38,0.93
49548,-0.01,0.39,0.93
49557,-0.01,0.39,0.93
49567,-0.01,0.39,0.92
49576,-0.01,0.39,0.92
49586,-0.01,0.39,0.92
49596,-0.02,0.39,0.92
49605,-0.02,0.39,0.92
49615,-0.02,0.39,0.92
49625,-0.02,0.39,0.91
49634,-0.01,0.39,0.91
49644,-0.01,0.39,0.91
49653,-0.01,0.40,0.91
49663,-0.01,0.40,0.91
49673,-0.01,0.41,0.92
49682,-0.01,0.41,0.92
49692,-0.01,0.41,0.92
49701,-0.00,0.41,0.91
49711,0.00,0.40,0.91
49721,0.00,0.40,0.91
49730,0.00,0.39,0.91
49740,0.01,0.39,0.91
49750,0.01,0.39,0.91
49759,0.00,0.39,0.92
49769,0.01,0.40,0.91
49778,0.01,0.40,0.91
49788,0.01,0.40,0.91
49798,0.01,0.41,0.91
49807,0.01,0.41,0.92
49817,0.01,0.41,0.92
49826,0.01,0.40,0.91
49836,0.02,0.40,0.91
49846,0.02,0.40,0.91
49855,0.01,0.40,0.92
49865,0.01,0.40,0.91
49875,0.01,0.40,0.91
49884,0.02,0.41,0.90
49894,0.02,0.42,0.90
49903,0.02,0.42,0.90
49913,0.02,0.43,0.90
49923,0.02,0.43,0.89
49932,0.02,0.42,0.89
49942,0.02,0.43,0.89
49951,0.01,0.43,0.90
49961,0.01,0.42,0.90
49971,0.02,0.42,0.90
49980,0.02,0.42,0.90
49990,0.02,0.41,0.90
50000,0.02,0.41,0.90
50009,0.02,0.42,0.91
50019,0.02,0.42,0.91
50028,0.02,0.42,0.91
50038,0.03,0.42,0.91
50048,0.03,0.41,0.91
50057,0.02,0.41,0.91
50067,0.03,0.41,0.91
50076,0.03,0.41,0.91
50086,0.03,0.40,0.90
50096,0.03,0.40,0.90
50105,0.03,0.40,0.90
50115,0.03,0.41,0.91
50125,0.03,0.41,0.90
50134,0.03,0.41,0.90
50144,0.03,0.41,0.90
50153,0.04,0.42,0.91
50163,0.03,0.42,0.91
50173,0.02,0.42,0.90
50182,0.04,0.42,0.90
50192,0.03,0.41,0.91
50201,0.03,0.41,0.90
50211,0.03,0.42,0.91
50221,0.03,0.43,0.90
50230,0.03,0.43,0.89
50240,0.03,0.43,0.90
50250,0.03,0.43,0.91
50259,0.03,0.43,0.91
50269,0.03,0.42,0.90
50278,0.03,0.42,0.90
50288,0.03,0.42,0.90
50298,0.03,0.43,0.89
50307,0.04,0.43,0.89
50317,0.04,0.43,0.89
50326,0.04,0.43,0.90
50336,0.04,0.43,0.90
50346,0.04,0.42,0.90
50355,0.04,0.42,0.90
50365,0.04,0.42,0.90
50375,0.04,0.42,0.91
50384,0.03,0.42,0.91
50394,0.04,0.42,0.90
50403,0.04,0.42,0.89
50413,0.04,0.42,0.90
50423,0.04,0.43,0.91
50432,0.04,0.43,0.91
50442,0.04,0.42,0.90
50451,0.05,0.42,0.90
50461,0.04,0.42,0.90
50471,0.04,0.42,0.89
50480,0.04,0.43,0.89
50490,0.04,0.43,0.89
50500,0.04,0.44,0.89
50509,0.04,0.44,0.89
50519,0.04,0.44,0.89
50528,0.03,0.44,0.90
50538,0.04,0.44,0.90
50548,0.04,0.44,0.89
50557,0.04,0.43,0.89
50567,0.04,0.43,0.89
50576,0.04,0.42,0.90
50586,0.03,0.42,0.90
50596,0.03,0.43,0.90
50605,0.05,0.43,0.89
50615,0.05,0.44,0.88
50625,0.05,0.45,0.88
50634,0.05,0.45,0.89
50644,0.05,0.44,0.90
50653,0.04,0.44,0.90
50663,0.04,0.43,0.90
50673,0.04,0.43,0.90
50682,0.05,0.43,0.90
50692,0.04,0.42,0.90
50701,0.05,0.42,0.90
50711,0.05,0.42,0.90
50721,0.05,0.42,0.90
50730,0.04,0.43,0.90
50740,0.04,0.43,0.90
50750,0.04,0.43,0.90
50759,0.04,0.43,0.90
50769,0.04,0.43,0.90
50778,0.04,0.43,0.90
50788,0.04,0.43,0.90
50798,0.05,0.42,0.89
50807,0.04,0.42,0.88
50817,0.04,0.44,0.89
50826,0.04,0.46,0.89
50836,0.04,0.45,0.88
50846,0.04,0.44,0.88
50855,0.03,0.44,0.89
50865,0.03,0.44,0.89
50875,0.03,0.43,0.89
50884,0.03,0.43,0.89
50894,0.03,0.43,0.89
50903,0.03,0.43,0.89
50913,0.03,0.43,0.89
50923,0.03,0.44,0.89
50932,0.03,0.44,0.90
50942,0.03,0.44,0.90
50951,0.03,0.43,0.90
50961,0.04,0.43,0.90
50971,0.04,0.43,0.89
50980,0.04,0.43,0.89
50990,0.04,0.43,0.90
51000,0.03,0.44,0.89
51009,0.04,0.44,0.88
51019,0.04,0.44,0.88
51028,0.04,0.44,0.88
51038,0.04,0.45,0.89
51048,0.04,0.44,0.88
51057,0.04,0.44,0.88
51067,0.04,0.44,0.88
51076,0.05,0.44,0.89
51086,0.05,0.44,0.89
51096,0.05,0.44,0.89
51105,0.05,0.43,0.89
51115,0.04,0.42,0.90
51125,0.04,0.43,0.91
51134,0.04,0.43,0.92
51144,0.04,0.42,0.90
51153,0.04,0.42,0.89
51163,0.04,0.42,0.89
51173,0.04,0.43,0.90
51182,0.04,0.43,0.90
51192,0.04,0.43,0.89
51201,0.04,0.44,0.90
51211,0.04,0.44,0.90
51221,0.04,0.43,0.90
51230,0.04,0.43,0.90
51240,0.04,0.43,0.90
51250,0.04,0.42,0.90
51259,0.04,0.43,0.90
51269,0.03,0.42,0.90
51278,0.03,0.42,0.90
51288,0.03,0.43,0.90
51298,0.03,0.43,0.89
51307,0.04,0.43,0.89
51317,0.04,0.43,0.89
51326,0.04,0.43,0.89
51336,0.04,0.43,0.89
51346,0.04,0.43,0.89
51355,0.04,0.43,0.89
51365,0.04,0.43,0.90
51375,0.04,0.43,0.90
51384,0.04,0.43,0.90
51394,0.04,0.43,0.89
51403,0.04,0.43,0.90
51413,0.04,0.43,0.90
51423,0.04,0.43,0.90
51432,0.04,0.43,0.90
51442,0.04,0.43,0.90
51451,0.04,0.43,0.90
51461,0.04,0.43,0.90
51471,0.05,0.43,0.90
51480,0.04,0.43,0.90
51490,0.04,0.43,0.90
51500,0.04,0.43,0.90
51509,0.04,0.42,0.89
51519,0.04,0.42,0.89
51528,0.04,0.43,0.90
51538,0.04,0.44,0.90
51548,0.04,0.43,0.89
51557,0.04,0.42,0.89
51567,0.04,0.43,0.90
51576,0.04,0.43,0.90
51586,0.04,0.43,0.90
51596,0.05,0.43,0.89
51605,0.05,0.42,0.89
51615,0.05,0.42,0.89
51625,0.05,0.43,0.90
51634,0.04,0.43,0.90
51644,0.03,0.42,0.91
51653,0.03,0.42,0.91
51663,0.03,0.42,0.91
51673,0.04,0.42,0.91
51682,0.04,0.42,0.91
51692,0.05,0.42,0.90
51701,0.04,0.41,0.91
51711,0.04,0.41,0.90
51721,0.04,0.42,0.90
51730,0.05,0.43,0.90
51740,0.04,0.43,0.90
51750,0.04,0.44,0.90
51759,0.04,0.44,0.89
51769,0.04,0.43,0.89
51778,0.03,0.42,0.89
51788,0.03,0.42,0.90
51798,0.03,0.42,0.91
51807,0.04,0.42,0.90
51817,0.04,0.42,0.90
51826,0.04,0.42,0.90
51836,-0.03,0.41,0.89
51846,0.09,0.44,0.92
51855,0.05,0.43,0.90
51865,0.02,0.40,0.89
51875,0.03,0.42,0.90
51884,0.05,0.42,0.89
51894,0.04,0.43,0.89
51903,0.05,0.43,0.89
51913,0.04,0.44,0.90
51923,0.04,0.44,0.89
51932,0.05,0.43,0.89
51942,0.05,0.42,0.89
51951,0.04,0.42,0.90
51961,0.04,0.42,0.91
51971,0.05,0.42,0.90
51980,0.05,0.42,0.90
51990,0.06,0.43,0.90
52000,0.05,0.42,0.90
52009,0.04,0.42,0.90
52019,0.04,0.43,0.91
52028,0.04,0.43,0.91
52038,0.05,0.43,0.90
52048,0.04,0.42,0.90
52057,0.05,0.42,0.90
52067,0.05,0.42,0.90
52076,0.05,0.42,0.90
52086,0.05,0.42,0.90
52096,0.05,0.43,0.90
52105,0.05,0.43,0.90
52115,0.05,0.42,0.90
52125,0.06,0.43,0.89
52134,0.06,0.43,0.89
52144,0.06,0.43,0.88
52153,0.06,0.43,0.88
52163,0.06,0.42,0.89
52173,0.06,0.42,0.90
52182,0.06,0.41,0.90
52192,0.06,0.42,0.90
52201,0.06,0.42,0.91
52211,0.07,0.42,0.90
52221,0.07,0.43,0.90
52230,0.06,0.42,0.91
52240,0.06,0.42,0.90
52250,0.06,0.42,0.90
52259,0.06,0.41,0.89
52269,0.06,0.42,0.89
52278,0.06,0.43,0.91
52288,0.07,0.43,0.91
52298,0.07,0.42,0.89
52307,0.06,0.42,0.89
52317,0.06,0.42,0.90
52326,0.06,0.42,0.90
52336,0.06,0.41,0.90
52346,0.06,0.42,0.90
52355,0.05,0.41,0.90
52365,0.05,0.41,0.91
52375,0.06,0.42,0.91
52384,0.06,0.41,0.91
52394,0.04,0.39,0.91
52403,0.06,0.41,0.91
52413,0.07,0.42,0.90
52423,0.06,0.42,0.90
52432,0.06,0.42,0.90
52442,0.06,0.43,0.92
52451,0.06,0.42,0.91
52461,0.07,0.42,0.90
52471,0.07,0.42,0.90
52480,0.07,0.42,0.90
52490,0.07,0.42,0.89
52500,0.06,0.42,0.89
52509,0.06,0.42,0.89
52519,0.06,0.42,0.90
52528,0.06,0.42,0.90
52538,0.06,0.42,0.90
52548,0.05,0.42,0.91
52557,0.06,0.42,0.91
52567,0.05,0.42,0.91
52576,0.05,0.42,0.91
52586,0.06,0.42,0.90
52596,0.06,0.42,0.90
52605,0.06,0.41,0.89
52615,0.05,0.42,0.89
52625,0.05,0.43,0.90
52634,0.05,0.42,0.90
52644,0.06,0.42,0.91
52653,0.06,0.42,0.91
52663,0.06,0.42,0.91
52673,0.06,0.41,0.91
52682,0.06,0.41,0.91
52692,0.07,0.41,0.90
52701,0.06,0.42,0.90
52711,0.06,0.42,0.90
52721,0.07,0.42,0.89
52730,0.07,0.43,0.89
52740,0.07,0.43,0.90
52750,0.06,0.42,0.90
52759,0.06,0.41,0.91
52769,0.06,0.41,0.91
52778,0.06,0.41,0.91
52788,0.06,0.41,0.91
52798,0.06,0.41,0.90
52807,0.06,0.42,0.90
52817,0.06,0.42,0.90
52826,0.06,0.42,0.90
52836,0.06,0.42,0.90
52846,0.06,0.42,0.90
52855,0.06,0.41,0.90
52865,0.05,0.41,0.90
52875,0.05,0.41,0.90
52884,0.05,0.42,0.91
52894,0.05,0.42,0.91
52903,0.05,0.42,0.91
52913,0.05,0.42,0.91
52923,0.05,0.42,0.91
52932,0.05,0.41,0.90
52942,0.05,0.41,0.90
52951,0.05,0.41,0.90
52961,0.06,0.41,0.90
52971,0.06,0.42,0.90
52980,0.05,0.42,0.90
52990,0.05,0.42,0.91
53000,0.05,0.41,0.91
53009,0.05,0.41,0.90
53019,0.05,0.41,0.90
53028,0.05,0.41,0.90
53038,0.05,0.42,0.90
53048,0.05,0.42,0.90
53057,0.06,0.42,0.89
53067,0.06,0.41,0.90
53076,0.05,0.41,0.91
53086,0.06,0.41,0.91
53096,0.05,0.41,0.91
53105,0.04,0.41,0.91
53115,0.04,0.41,0.91
53125,0.05,0.42,0.91
53134,0.05,0.42,0.91
53144,0.05,0.41,0.91
53153,0.05,0.41,0.90
53163,0.05,0.40,0.90
53173,0.05,0.41,0.91
53182,0.05,0.42,0.90
53192,0.05,0.42,0.90
53201,0.05,0.42,0.90
53211,0.05,0.42,0.90
53221,0.05,0.42,0.90
53230,0.05,0.42,0.91
53240,0.05,0.42,0.91
53250,0.05,0.42,0.91
53259,0.05,0.41,0.91
53269,0.05,0.41,0.91
53278,0.05,0.41,0.90
53288,0.05,0.41,0.90
53298,0.05,0.41,0.91
53307,0.05,0.42,0.90
53317,0.05,0.42,0.90
53326,0.06,0.43,0.90
53336,0.06,0.43,0.90
53346,0.06,0.42,0.90
53355,0.05,0.42,0.90
53365,0.05,0.42,0.90
53375,0.05,0.42,0.90
53384,0.05,0.42,0.91
53394,0.05,0.42,0.91
53403,0.05,0.41,0.90
53413,0.05,0.41,0.90
53423,0.05,0.41,0.91
53432,0.05,0.42,0.90
53442,0.05,0.42,0.90
53451,0.06,0.42,0.90
53461,0.06,0.41,0.90
53471,0.06,0.41,0.90
53480,0.05,0.41,0.90
53490,0.05,0.41,0.91
53500,0.04,0.41,0.91
53509,0.04,0.41,0.91
53519,0.04,0.41,0.91
53528,0.04,0.41,0.91
53538,0.04,0.41,0.91
53548,0.04,0.42,0.91
53557,0.04,0.42,0.91
53567,0.04,0.42,0.91
53576,0.04,0.42,0.90
53586,0.03,0.42,0.90
53596,0.03,0.42,0.89
53605,0.05,0.42,0.89
53615,0.05,0.42,0.90
53625,0.03,0.42,0.89
53634,0.04,0.42,0.89
53644,0.06,0.43,0.90
53653,0.05,0.42,0.90
53663,0.02,0.41,0.89
53673,0.04,0.41,0.90
53682,0.06,0.42,0.91
53692,0.06,0.42,0.91
53701,0.05,0.41,0.91
53711,0.05,0.40,0.92
53721,0.06,0.40,0.92
53730,0.06,0.40,0.92
53740,0.05,0.40,0.92
53750,0.03,0.40,0.91
53759,0.04,0.40,0.91
53769,0.06,0.42,0.91
53778,0.07,0.43,0.91
53788,0.07,0.42,0.91
53798,0.07,0.41,0.90
53807,0.05,0.40,0.89
53817,0.04,0.40,0.89
53826,0.06,0.42,0.90
53836,0.06,0.42,0.90
53846,0.05,0.42,0.90
53855,0.06,0.42,0.90
53865,0.06,0.42,0.90
53875,0.05,0.42,0.89
53884,0.06,0.42,0.88
53894,0.05,0.42,0.90
53903,0.05,0.42,0.92
53913,0.05,0.41,0.92
53923,0.06,0.41,0.91
53932,0.06,0.40,0.91
53942,0.06,0.40,0.91
53951,0.08,0.42,0.91
